File: data/Phases_XRD_data.csv
Fm-3m,,,Ia-3,,,P63m,
10,365,,10,526,,10,573
10.03,406,,10.03,556,,10.03,535
10.06,403,,10.06,538,,10.06,563
10.09,398,,10.09,505,,10.09,535
10.12,371,,10.12,536,,10.12,574
10.15,363,,10.15,516,,10.15,566
10.18,393,,10.18,530,,10.18,545
10.21,413,,10.21,579,,10.21,537
10.24,373,,10.24,532,,10.24,536
10.27,384,,10.27,512,,10.27,584
10.3,394,,10.3,519,,10.3,551
10.33,416,,10.33,519,,10.33,548
10.36,369,,10.36,527,,10.36,543
10.39,397,,10.39,516,,10.39,559
10.42,407,,10.42,563,,10.42,577
10.45,374,,10.45,491,,10.45,536
10.48,394,,10.48,523,,10.48,538
10.51,390,,10.51,498,,10.51,556
10.54,377,,10.54,539,,10.54,558
10.57,392,,10.57,520,,10.57,559
10.6,391,,10.6,529,,10.6,512
10.63,379,,10.63,516,,10.63,520
10.66,370,,10.66,537,,10.66,529
10.69,375,,10.69,515,,10.69,581
10.72,365,,10.72,514,,10.72,530
10.75,385,,10.75,528,,10.75,540
10.78,409,,10.78,543,,10.78,536
10.81,406,,10.81,513,,10.81,539
10.84,385,,10.84,509,,10.84,528
10.87,405,,10.87,577,,10.87,577
10.9,403,,10.9,495,,10.9,539
10.93,379,,10.93,513,,10.93,557
10.96,361,,10.96,557,,10.96,534
10.99,410,,10.99,511,,10.99,545
11.02,393,,11.02,535,,11.02,577
11.05,403,,11.05,545,,11.05,512
11.08,384,,11.08,524,,11.08,521
11.11,358,,11.11,506,,11.11,569
11.14,370,,11.14,473,,11.14,569
11.17,379,,11.17,515,,11.17,551
11.2,408,,11.2,533,,11.2,540
11.23,391,,11.23,523,,11.23,551
11.26,377,,11.26,550,,11.26,540
11.29,405,,11.29,514,,11.29,551
11.32,390,,11.32,519,,11.32,541
11.35,395,,11.35,519,,11.35,552
11.38,400,,11.38,523,,11.38,532
11.41,395,,11.41,512,,11.41,578
11.44,362,,11.44,520,,11.44,561
11.47,398,,11.47,545,,11.47,582
11.5,382,,11.5,531,,11.5,571
11.53,387,,11.53,522,,11.53,539
11.56,387,,11.56,526,,11.56,548
11.59,401,,11.59,523,,11.59,582
11.62,410,,11.62,497,,11.62,595
11.65,369,,11.65,536,,11.65,532
11.68,358,,11.68,547,,11.68,611
11.71,370,,11.71,515,,11.71,592
11.74,399,,11.74,556,,11.74,583
11.77,412,,11.77,537,,11.77,581
11.8,395,,11.8,569,,11.8,592
11.83,403,,11.83,543,,11.83,564
11.86,352,,11.86,523,,11.86,640
11.89,383,,11.89,536,,11.89,603
11.92,374,,11.92,522,,11.92,612
11.95,372,,11.95,531,,11.95,611
11.98,392,,11.98,527,,11.98,659
12.01,399,,12.01,552,,12.01,640
12.04,370,,12.04,568,,12.04,684
12.07,384,,12.07,573,,12.07,710
12.1,410,,12.1,554,,12.1,741
12.13,382,,12.13,542,,12.13,747
12.16,413,,12.16,521,,12.16,850
12.19,416,,12.19,561,,12.19,880
12.22,405,,12.22,548,,12.22,1013
12.25,412,,12.25,504,,12.25,1065
12.28,403,,12.28,541,,12.28,1091
12.31,377,,12.31,524,,12.31,1250
12.34,401,,12.34,546,,12.34,1372
12.37,383,,12.37,568,,12.37,1386
12.4,392,,12.4,529,,12.4,1468
12.43,390,,12.43,555,,12.43,1441
12.46,395,,12.46,514,,12.46,1407
12.49,387,,12.49,550,,12.49,1386
12.52,393,,12.52,562,,12.52,1374
12.55,417,,12.55,581,,12.55,1279
12.58,375,,12.58,566,,12.58,1206
12.61,397,,12.61,544,,12.61,1117
12.64,410,,12.64,530,,12.64,1067
12.67,388,,12.67,578,,12.67,968
12.7,366,,12.7,550,,12.7,917
12.73,406,,12.73,588,,12.73,830
12.76,409,,12.76,571,,12.76,810
12.79,425,,12.79,579,,12.79,740
12.82,366,,12.82,591,,12.82,701
12.85,368,,12.85,487,,12.85,703
12.88,410,,12.88,543,,12.88,686
12.91,416,,12.91,544,,12.91,691
12.94,433,,12.94,559,,12.94,680
12.97,416,,12.97,535,,12.97,641
13,419,,13,601,,13,612
13.03,391,,13.03,547,,13.03,601
13.06,392,,13.06,518,,13.06,583
13.09,408,,13.09,560,,13.09,591
13.12,405,,13.12,537,,13.12,621
13.15,424,,13.15,557,,13.15,620
13.18,401,,13.18,556,,13.18,602
13.21,453,,13.21,541,,13.21,563
13.24,376,,13.24,556,,13.24,586
13.27,413,,13.27,566,,13.27,580
13.3,414,,13.3,580,,13.3,604
13.33,402,,13.33,566,,13.33,582
13.36,402,,13.36,575,,13.36,611
13.39,397,,13.39,561,,13.39,591
13.42,364,,13.42,583,,13.42,593
13.45,432,,13.45,567,,13.45,568
13.48,414,,13.48,580,,13.48,575
13.51,394,,13.51,559,,13.51,569
13.54,385,,13.54,517,,13.54,599
13.57,414,,13.57,579,,13.57,590
13.6,416,,13.6,563,,13.6,569
13.63,429,,13.63,548,,13.63,605
13.66,367,,13.66,551,,13.66,565
13.69,369,,13.69,570,,13.69,594
13.72,398,,13.72,552,,13.72,584
13.75,410,,13.75,564,,13.75,591
13.78,408,,13.78,586,,13.78,553
13.81,369,,13.81,557,,13.81,593
13.84,398,,13.84,567,,13.84,624
13.87,392,,13.87,551,,13.87,586
13.9,387,,13.9,531,,13.9,619
13.93,437,,13.93,567,,13.93,588
13.96,398,,13.96,562,,13.96,565
13.99,384,,13.99,542,,13.99,549
14.02,403,,14.02,556,,14.02,570
14.05,397,,14.05,551,,14.05,567
14.08,394,,14.08,544,,14.08,577
14.11,381,,14.11,534,,14.11,569
14.14,385,,14.14,530,,14.14,597
14.17,403,,14.17,530,,14.17,573
14.2,386,,14.2,573,,14.2,585
14.23,422,,14.23,544,,14.23,583
14.26,416,,14.26,552,,14.26,559
14.29,408,,14.29,534,,14.29,601
14.32,406,,14.32,553,,14.32,530
14.35,388,,14.35,595,,14.35,574
14.38,381,,14.38,519,,14.38,549
14.41,382,,14.41,517,,14.41,588
14.44,388,,14.44,534,,14.44,593
14.47,381,,14.47,528,,14.47,554
14.5,361,,14.5,521,,14.5,569
14.53,403,,14.53,564,,14.53,564
14.56,379,,14.56,534,,14.56,562
14.59,389,,14.59,543,,14.59,533
14.62,370,,14.62,525,,14.62,575
14.65,373,,14.65,527,,14.65,575
14.68,405,,14.68,546,,14.68,585
14.71,386,,14.71,527,,14.71,544
14.74,396,,14.74,545,,14.74,557
14.77,401,,14.77,554,,14.77,567
14.8,393,,14.8,545,,14.8,545
14.83,373,,14.83,552,,14.83,544
14.86,390,,14.86,538,,14.86,553
14.89,375,,14.89,571,,14.89,565
14.92,395,,14.92,535,,14.92,579
14.95,412,,14.95,519,,14.95,581
14.98,399,,14.98,512,,14.98,554
15.01,381,,15.01,557,,15.01,523
15.04,368,,15.04,538,,15.04,519
15.07,386,,15.07,553,,15.07,543
15.1,377,,15.1,548,,15.1,557
15.13,407,,15.13,566,,15.13,549
15.16,361,,15.16,548,,15.16,577
15.19,360,,15.19,503,,15.19,573
15.22,379,,15.22,514,,15.22,529
15.25,392,,15.25,522,,15.25,545
15.28,367,,15.28,550,,15.28,541
15.31,378,,15.31,517,,15.31,515
15.34,377,,15.34,523,,15.34,529
15.37,410,,15.37,531,,15.37,551
15.4,378,,15.4,541,,15.4,566
15.43,380,,15.43,528,,15.43,533
15.46,362,,15.46,538,,15.46,549
15.49,370,,15.49,542,,15.49,499
15.52,361,,15.52,569,,15.52,497
15.55,376,,15.55,545,,15.55,539
15.58,393,,15.58,591,,15.58,581
15.61,362,,15.61,521,,15.61,524
15.64,372,,15.64,521,,15.64,543
15.67,345,,15.67,594,,15.67,555
15.7,369,,15.7,547,,15.7,520
15.73,372,,15.73,598,,15.73,531
15.76,352,,15.76,586,,15.76,538
15.79,375,,15.79,573,,15.79,523
15.82,354,,15.82,642,,15.82,547
15.85,394,,15.85,660,,15.85,543
15.88,363,,15.88,688,,15.88,554
15.91,342,,15.91,701,,15.91,550
15.94,377,,15.94,674,,15.94,488
15.97,335,,15.97,745,,15.97,534
16,375,,16,775,,16,519
16.03,366,,16.03,732,,16.03,520
16.06,364,,16.06,805,,16.06,544
16.09,384,,16.09,827,,16.09,510
16.12,352,,16.12,848,,16.12,516
16.15,325,,16.15,811,,16.15,537
16.18,361,,16.18,827,,16.18,489
16.21,319,,16.21,849,,16.21,519
16.24,388,,16.24,837,,16.24,495
16.27,347,,16.27,845,,16.27,509
16.3,376,,16.3,810,,16.3,528
16.33,367,,16.33,816,,16.33,510
16.36,391,,16.36,815,,16.36,505
16.39,357,,16.39,687,,16.39,484
16.42,385,,16.42,701,,16.42,523
16.45,352,,16.45,697,,16.45,543
16.48,352,,16.48,630,,16.48,512
16.51,375,,16.51,661,,16.51,547
16.54,356,,16.54,577,,16.54,525
16.57,344,,16.57,600,,16.57,483
16.6,372,,16.6,543,,16.6,490
16.63,323,,16.63,569,,16.63,515
16.66,359,,16.66,568,,16.66,504
16.69,356,,16.69,534,,16.69,545
16.72,359,,16.72,495,,16.72,548
16.75,357,,16.75,506,,16.75,508
16.78,342,,16.78,527,,16.78,494
16.81,333,,16.81,506,,16.81,487
16.84,348,,16.84,510,,16.84,503
16.87,351,,16.87,504,,16.87,497
16.9,318,,16.9,515,,16.9,490
16.93,343,,16.93,481,,16.93,505
16.96,344,,16.96,496,,16.96,494
16.99,342,,16.99,483,,16.99,500
17.02,352,,17.02,489,,17.02,559
17.05,328,,17.05,488,,17.05,511
17.08,353,,17.08,481,,17.08,526
17.11,315,,17.11,472,,17.11,506
17.14,329,,17.14,473,,17.14,477
17.17,336,,17.17,477,,17.17,465
17.2,344,,17.2,450,,17.2,465
17.23,342,,17.23,470,,17.23,460
17.26,358,,17.26,481,,17.26,509
17.29,342,,17.29,432,,17.29,483
17.32,342,,17.32,475,,17.32,519
17.35,329,,17.35,451,,17.35,506
17.38,344,,17.38,460,,17.38,482
17.41,382,,17.41,474,,17.41,523
17.44,359,,17.44,447,,17.44,504
17.47,339,,17.47,455,,17.47,486
17.5,346,,17.5,463,,17.5,490
17.53,338,,17.53,427,,17.53,479
17.56,341,,17.56,444,,17.56,494
17.59,318,,17.59,467,,17.59,471
17.62,339,,17.62,464,,17.62,497
17.65,344,,17.65,448,,17.65,505
17.68,320,,17.68,476,,17.68,462
17.71,334,,17.71,434,,17.71,496
17.74,313,,17.74,490,,17.74,475
17.77,321,,17.77,459,,17.77,463
17.8,342,,17.8,427,,17.8,463
17.83,324,,17.83,468,,17.83,514
17.86,318,,17.86,431,,17.86,500
17.89,329,,17.89,430,,17.89,481
17.92,326,,17.92,397,,17.92,454
17.95,299,,17.95,440,,17.95,478
17.98,302,,17.98,416,,17.98,461
18.01,312,,18.01,428,,18.01,473
18.04,317,,18.04,409,,18.04,479
18.07,294,,18.07,436,,18.07,448
18.1,336,,18.1,445,,18.1,473
18.13,326,,18.13,468,,18.13,474
18.16,314,,18.16,461,,18.16,476
18.19,318,,18.19,406,,18.19,447
18.22,333,,18.22,421,,18.22,440
18.25,323,,18.25,459,,18.25,445
18.28,318,,18.28,438,,18.28,472
18.31,312,,18.31,425,,18.31,479
18.34,309,,18.34,437,,18.34,459
18.37,306,,18.37,430,,18.37,460
18.4,320,,18.4,416,,18.4,463
18.43,299,,18.43,430,,18.43,482
18.46,312,,18.46,441,,18.46,445
18.49,297,,18.49,454,,18.49,450
18.52,337,,18.52,391,,18.52,457
18.55,304,,18.55,427,,18.55,434
18.58,293,,18.58,458,,18.58,446
18.61,345,,18.61,425,,18.61,476
18.64,312,,18.64,451,,18.64,446
18.67,323,,18.67,443,,18.67,424
18.7,302,,18.7,434,,18.7,457
18.73,320,,18.73,405,,18.73,431
18.76,310,,18.76,438,,18.76,411
18.79,338,,18.79,415,,18.79,442
18.82,299,,18.82,442,,18.82,432
18.85,315,,18.85,428,,18.85,446
18.88,300,,18.88,422,,18.88,470
18.91,301,,18.91,413,,18.91,438
18.94,296,,18.94,415,,18.94,440
18.97,346,,18.97,450,,18.97,457
19,315,,19,440,,19,466
19.03,300,,19.03,415,,19.03,441
19.06,294,,19.06,412,,19.06,430
19.09,309,,19.09,393,,19.09,454
19.12,310,,19.12,406,,19.12,438
19.15,296,,19.15,418,,19.15,427
19.18,304,,19.18,425,,19.18,439
19.21,301,,19.21,371,,19.21,443
19.24,335,,19.24,427,,19.24,455
19.27,295,,19.27,384,,19.27,412
19.3,298,,19.3,396,,19.3,422
19.33,287,,19.33,412,,19.33,398
19.36,311,,19.36,398,,19.36,432
19.39,312,,19.39,403,,19.39,428
19.42,307,,19.42,401,,19.42,435
19.45,285,,19.45,397,,19.45,441
19.48,306,,19.48,412,,19.48,414
19.51,272,,19.51,386,,19.51,440
19.54,284,,19.54,400,,19.54,442
19.57,310,,19.57,417,,19.57,441
19.6,316,,19.6,382,,19.6,449
19.63,307,,19.63,399,,19.63,450
19.66,289,,19.66,389,,19.66,424
19.69,301,,19.69,394,,19.69,434
19.72,303,,19.72,378,,19.72,404
19.75,307,,19.75,419,,19.75,444
19.78,292,,19.78,399,,19.78,443
19.81,305,,19.81,429,,19.81,422
19.84,279,,19.84,410,,19.84,419
19.87,303,,19.87,416,,19.87,421
19.9,258,,19.9,388,,19.9,411
19.93,307,,19.93,421,,19.93,436
19.96,286,,19.96,411,,19.96,451
19.99,286,,19.99,439,,19.99,402
20.02,301,,20.02,389,,20.02,419
20.05,301,,20.05,403,,20.05,412
20.08,313,,20.08,378,,20.08,418
20.11,285,,20.11,375,,20.11,434
20.14,297,,20.14,375,,20.14,408
20.17,273,,20.17,367,,20.17,432
20.2,290,,20.2,363,,20.2,407
20.23,304,,20.23,419,,20.23,435
20.26,300,,20.26,394,,20.26,416
20.29,281,,20.29,423,,20.29,418
20.32,286,,20.32,406,,20.32,413
20.35,301,,20.35,362,,20.35,440
20.38,306,,20.38,401,,20.38,463
20.41,265,,20.41,371,,20.41,423
20.44,262,,20.44,398,,20.44,443
20.47,274,,20.47,409,,20.47,434
20.5,292,,20.5,383,,20.5,422
20.53,294,,20.53,403,,20.53,436
20.56,305,,20.56,381,,20.56,441
20.59,292,,20.59,390,,20.59,441
20.62,310,,20.62,379,,20.62,421
20.65,277,,20.65,374,,20.65,435
20.68,265,,20.68,381,,20.68,448
20.71,267,,20.71,373,,20.71,433
20.74,291,,20.74,410,,20.74,461
20.77,300,,20.77,411,,20.77,460
20.8,275,,20.8,387,,20.8,457
20.83,295,,20.83,417,,20.83,463
20.86,299,,20.86,378,,20.86,459
20.89,267,,20.89,389,,20.89,406
20.92,297,,20.92,381,,20.92,445
20.95,289,,20.95,415,,20.95,455
20.98,294,,20.98,379,,20.98,460
21.01,290,,21.01,377,,21.01,466
21.04,295,,21.04,397,,21.04,453
21.07,291,,21.07,388,,21.07,447
21.1,297,,21.1,367,,21.1,443
21.13,309,,21.13,349,,21.13,522
21.16,282,,21.16,376,,21.16,556
21.19,288,,21.19,379,,21.19,586
21.22,284,,21.22,380,,21.22,568
21.25,265,,21.25,372,,21.25,575
21.28,266,,21.28,359,,21.28,651
21.31,301,,21.31,388,,21.31,742
21.34,334,,21.34,378,,21.34,785
21.37,296,,21.37,397,,21.37,859
21.4,294,,21.4,373,,21.4,863
21.43,325,,21.43,387,,21.43,955
21.46,300,,21.46,374,,21.46,1007
21.49,312,,21.49,367,,21.49,993
21.52,321,,21.52,384,,21.52,1031
21.55,326,,21.55,387,,21.55,1085
21.58,347,,21.58,375,,21.58,1070
21.61,308,,21.61,385,,21.61,1028
21.64,355,,21.64,369,,21.64,984
21.67,318,,21.67,390,,21.67,964
21.7,365,,21.7,413,,21.7,1039
21.73,359,,21.73,380,,21.73,978
21.76,384,,21.76,399,,21.76,979
21.79,375,,21.79,417,,21.79,949
21.82,386,,21.82,382,,21.82,985
21.85,426,,21.85,395,,21.85,1058
21.88,424,,21.88,406,,21.88,1056
21.91,446,,21.91,411,,21.91,1145
21.94,482,,21.94,429,,21.94,1299
21.97,553,,21.97,403,,21.97,1295
22,573,,22,427,,22,1367
22.03,581,,22.03,430,,22.03,1389
22.06,671,,22.06,400,,22.06,1333
22.09,803,,22.09,420,,22.09,1336
22.12,894,,22.12,466,,22.12,1328
22.15,974,,22.15,478,,22.15,1284
22.18,1164,,22.18,453,,22.18,1201
22.21,1279,,22.21,519,,22.21,1109
22.24,1513,,22.24,496,,22.24,1044
22.27,1768,,22.27,509,,22.27,918
22.3,1983,,22.3,546,,22.3,856
22.33,2281,,22.33,581,,22.33,766
22.36,2459,,22.36,623,,22.36,711
22.39,2665,,22.39,654,,22.39,666
22.42,2802,,22.42,757,,22.42,595
22.45,2888,,22.45,792,,22.45,487
22.48,2968,,22.48,881,,22.48,508
22.51,2905,,22.51,980,,22.51,475
22.54,2786,,22.54,1183,,22.54,451
22.57,2705,,22.57,1340,,22.57,422
22.6,2527,,22.6,1453,,22.6,431
22.63,2297,,22.63,1781,,22.63,413
22.66,2087,,22.66,1907,,22.66,389
22.69,1926,,22.69,2287,,22.69,403
22.72,1652,,22.72,2626,,22.72,360
22.75,1472,,22.75,2903,,22.75,389
22.78,1268,,22.78,3120,,22.78,377
22.81,1097,,22.81,3426,,22.81,373
22.84,955,,22.84,3570,,22.84,362
22.87,872,,22.87,4015,,22.87,373
22.9,703,,22.9,4121,,22.9,378
22.93,646,,22.93,4074,,22.93,361
22.96,567,,22.96,4007,,22.96,328
22.99,513,,22.99,3974,,22.99,361
23.02,443,,23.02,3773,,23.02,330
23.05,427,,23.05,3463,,23.05,330
23.08,438,,23.08,3290,,23.08,363
23.11,404,,23.11,3021,,23.11,326
23.14,372,,23.14,2616,,23.14,319
23.17,347,,23.17,2311,,23.17,309
23.2,344,,23.2,2068,,23.2,320
23.23,330,,23.23,1752,,23.23,304
23.26,326,,23.26,1556,,23.26,340
23.29,315,,23.29,1296,,23.29,340
23.32,283,,23.32,1160,,23.32,320
23.35,294,,23.35,1024,,23.35,302
23.38,251,,23.38,894,,23.38,345
23.41,267,,23.41,763,,23.41,329
23.44,260,,23.44,683,,23.44,312
23.47,238,,23.47,642,,23.47,299
23.5,268,,23.5,552,,23.5,367
23.53,244,,23.53,553,,23.53,330
23.56,238,,23.56,515,,23.56,297
23.59,245,,23.59,482,,23.59,322
23.62,249,,23.62,455,,23.62,330
23.65,253,,23.65,434,,23.65,290
23.68,267,,23.68,417,,23.68,318
23.71,248,,23.71,429,,23.71,309
23.74,263,,23.74,385,,23.74,312
23.77,233,,23.77,377,,23.77,288
23.8,224,,23.8,370,,23.8,275
23.83,224,,23.83,345,,23.83,289
23.86,232,,23.86,364,,23.86,276
23.89,227,,23.89,351,,23.89,301
23.92,227,,23.92,339,,23.92,304
23.95,260,,23.95,332,,23.95,273
23.98,246,,23.98,329,,23.98,318
24.01,211,,24.01,337,,24.01,294
24.04,218,,24.04,343,,24.04,297
24.07,223,,24.07,315,,24.07,306
24.1,199,,24.1,325,,24.1,313
24.13,211,,24.13,301,,24.13,284
24.16,223,,24.16,318,,24.16,292
24.19,207,,24.19,312,,24.19,303
24.22,223,,24.22,290,,24.22,291
24.25,231,,24.25,293,,24.25,289
24.28,213,,24.28,326,,24.28,293
24.31,221,,24.31,290,,24.31,281
24.34,221,,24.34,296,,24.34,292
24.37,205,,24.37,294,,24.37,304
24.4,201,,24.4,310,,24.4,287
24.43,212,,24.43,320,,24.43,314
24.46,232,,24.46,302,,24.46,304
24.49,213,,24.49,316,,24.49,307
24.52,197,,24.52,288,,24.52,277
24.55,204,,24.55,303,,24.55,286
24.58,203,,24.58,278,,24.58,323
24.61,196,,24.61,285,,24.61,321
24.64,213,,24.64,276,,24.64,317
24.67,222,,24.67,291,,24.67,333
24.7,203,,24.7,281,,24.7,362
24.73,199,,24.73,307,,24.73,338
24.76,227,,24.76,285,,24.76,355
24.79,210,,24.79,286,,24.79,400
24.82,202,,24.82,315,,24.82,394
24.85,205,,24.85,307,,24.85,424
24.88,198,,24.88,305,,24.88,435
24.91,212,,24.91,278,,24.91,405
24.94,186,,24.94,271,,24.94,401
24.97,220,,24.97,269,,24.97,385
25,207,,25,270,,25,388
25.03,205,,25.03,261,,25.03,371
25.06,201,,25.06,274,,25.06,349
25.09,208,,25.09,262,,25.09,338
25.12,217,,25.12,272,,25.12,344
25.15,205,,25.15,259,,25.15,321
25.18,212,,25.18,241,,25.18,300
25.21,196,,25.21,283,,25.21,327
25.24,226,,25.24,279,,25.24,312
25.27,221,,25.27,272,,25.27,296
25.3,222,,25.3,270,,25.3,284
25.33,225,,25.33,253,,25.33,262
25.36,227,,25.36,282,,25.36,279
25.39,250,,25.39,253,,25.39,266
25.42,254,,25.42,272,,25.42,295
25.45,260,,25.45,284,,25.45,263
25.48,259,,25.48,273,,25.48,266
25.51,276,,25.51,242,,25.51,255
25.54,295,,25.54,228,,25.54,271
25.57,308,,25.57,250,,25.57,243
25.6,335,,25.6,258,,25.6,254
25.63,381,,25.63,271,,25.63,245
25.66,378,,25.66,271,,25.66,236
25.69,434,,25.69,272,,25.69,257
25.72,471,,25.72,311,,25.72,264
25.75,535,,25.75,278,,25.75,255
25.78,583,,25.78,273,,25.78,266
25.81,593,,25.81,280,,25.81,249
25.84,683,,25.84,285,,25.84,265
25.87,757,,25.87,299,,25.87,236
25.9,802,,25.9,309,,25.9,247
25.93,888,,25.93,291,,25.93,259
25.96,849,,25.96,300,,25.96,239
25.99,936,,25.99,337,,25.99,257
26.02,899,,26.02,342,,26.02,263
26.05,866,,26.05,370,,26.05,220
26.08,871,,26.08,396,,26.08,245
26.11,807,,26.11,426,,26.11,243
26.14,761,,26.14,455,,26.14,229
26.17,688,,26.17,492,,26.17,256
26.2,661,,26.2,560,,26.2,263
26.23,583,,26.23,642,,26.23,227
26.26,537,,26.26,687,,26.26,241
26.29,482,,26.29,723,,26.29,224
26.32,428,,26.32,745,,26.32,252
26.35,408,,26.35,838,,26.35,248
26.38,376,,26.38,1009,,26.38,230
26.41,328,,26.41,979,,26.41,224
26.44,285,,26.44,1055,,26.44,226
26.47,305,,26.47,998,,26.47,237
26.5,255,,26.5,1089,,26.5,250
26.53,255,,26.53,1089,,26.53,241
26.56,249,,26.56,1044,,26.56,242
26.59,239,,26.59,1087,,26.59,253
26.62,204,,26.62,1005,,26.62,241
26.65,200,,26.65,970,,26.65,232
26.68,217,,26.68,860,,26.68,234
26.71,199,,26.71,775,,26.71,239
26.74,189,,26.74,683,,26.74,215
26.77,184,,26.77,640,,26.77,232
26.8,175,,26.8,589,,26.8,234
26.83,158,,26.83,510,,26.83,232
26.86,182,,26.86,496,,26.86,232
26.89,190,,26.89,459,,26.89,222
26.92,188,,26.92,407,,26.92,235
26.95,171,,26.95,379,,26.95,218
26.98,194,,26.98,345,,26.98,242
27.01,166,,27.01,312,,27.01,212
27.04,176,,27.04,330,,27.04,244
27.07,183,,27.07,303,,27.07,228
27.1,166,,27.1,295,,27.1,218
27.13,155,,27.13,276,,27.13,232
27.16,181,,27.16,299,,27.16,204
27.19,170,,27.19,265,,27.19,224
27.22,177,,27.22,259,,27.22,217
27.25,184,,27.25,260,,27.25,223
27.28,152,,27.28,252,,27.28,214
27.31,159,,27.31,261,,27.31,227
27.34,161,,27.34,254,,27.34,213
27.37,176,,27.37,270,,27.37,248
27.4,155,,27.4,227,,27.4,233
27.43,155,,27.43,234,,27.43,247
27.46,148,,27.46,228,,27.46,247
27.49,154,,27.49,212,,27.49,206
27.52,148,,27.52,243,,27.52,208
27.55,162,,27.55,246,,27.55,205
27.58,153,,27.58,244,,27.58,245
27.61,164,,27.61,229,,27.61,241
27.64,183,,27.64,219,,27.64,224
27.67,157,,27.67,224,,27.67,232
27.7,146,,27.7,234,,27.7,205
27.73,156,,27.73,252,,27.73,225
27.76,156,,27.76,241,,27.76,234
27.79,156,,27.79,238,,27.79,225
27.82,143,,27.82,246,,27.82,234
27.85,161,,27.85,283,,27.85,229
27.88,148,,27.88,290,,27.88,222
27.91,134,,27.91,277,,27.91,208
27.94,165,,27.94,319,,27.94,226
27.97,174,,27.97,318,,27.97,245
28,162,,28,328,,28,233
28.03,145,,28.03,319,,28.03,254
28.06,146,,28.06,334,,28.06,223
28.09,146,,28.09,350,,28.09,236
28.12,144,,28.12,327,,28.12,232
28.15,149,,28.15,359,,28.15,284
28.18,168,,28.18,357,,28.18,289
28.21,144,,28.21,365,,28.21,271
28.24,147,,28.24,327,,28.24,287
28.27,151,,28.27,335,,28.27,294
28.3,148,,28.3,299,,28.3,299
28.33,165,,28.33,325,,28.33,272
28.36,147,,28.36,296,,28.36,281
28.39,170,,28.39,287,,28.39,288
28.42,147,,28.42,273,,28.42,248
28.45,157,,28.45,267,,28.45,243
28.48,154,,28.48,270,,28.48,222
28.51,158,,28.51,239,,28.51,254
28.54,143,,28.54,251,,28.54,255
28.57,156,,28.57,231,,28.57,234
28.6,148,,28.6,235,,28.6,251
28.63,166,,28.63,245,,28.63,230
28.66,167,,28.66,206,,28.66,229
28.69,158,,28.69,236,,28.69,240
28.72,156,,28.72,221,,28.72,213
28.75,151,,28.75,208,,28.75,201
28.78,145,,28.78,202,,28.78,223
28.81,175,,28.81,199,,28.81,219
28.84,158,,28.84,190,,28.84,223
28.87,154,,28.87,216,,28.87,209
28.9,145,,28.9,193,,28.9,227
28.93,155,,28.93,209,,28.93,229
28.96,143,,28.96,199,,28.96,211
28.99,142,,28.99,232,,28.99,217
29.02,145,,29.02,218,,29.02,205
29.05,140,,29.05,200,,29.05,222
29.08,140,,29.08,203,,29.08,216
29.11,139,,29.11,202,,29.11,192
29.14,149,,29.14,166,,29.14,221
29.17,140,,29.17,203,,29.17,243
29.2,146,,29.2,188,,29.2,230
29.23,141,,29.23,185,,29.23,227
29.26,160,,29.26,190,,29.26,245
29.29,137,,29.29,206,,29.29,208
29.32,151,,29.32,211,,29.32,209
29.35,153,,29.35,215,,29.35,194
29.38,142,,29.38,204,,29.38,203
29.41,152,,29.41,195,,29.41,202
29.44,139,,29.44,208,,29.44,218
29.47,133,,29.47,209,,29.47,215
29.5,151,,29.5,222,,29.5,216
29.53,141,,29.53,230,,29.53,225
29.56,138,,29.56,208,,29.56,217
29.59,144,,29.59,227,,29.59,203
29.62,120,,29.62,218,,29.62,202
29.65,138,,29.65,216,,29.65,205
29.68,141,,29.68,223,,29.68,192
29.71,140,,29.71,219,,29.71,211
29.74,142,,29.74,221,,29.74,218
29.77,138,,29.77,200,,29.77,207
29.8,160,,29.8,215,,29.8,218
29.83,147,,29.83,195,,29.83,220
29.86,137,,29.86,222,,29.86,192
29.89,146,,29.89,211,,29.89,237
29.92,143,,29.92,207,,29.92,223
29.95,146,,29.95,202,,29.95,207
29.98,125,,29.98,209,,29.98,207
30.01,168,,30.01,206,,30.01,232
30.04,128,,30.04,199,,30.04,215
30.07,130,,30.07,206,,30.07,208
30.1,152,,30.1,184,,30.1,202
30.13,154,,30.13,196,,30.13,205
30.16,137,,30.16,199,,30.16,217
30.19,144,,30.19,212,,30.19,224
30.22,130,,30.22,188,,30.22,228
30.25,120,,30.25,216,,30.25,215
30.28,138,,30.28,170,,30.28,244
30.31,144,,30.31,185,,30.31,226
30.34,119,,30.34,180,,30.34,232
30.37,130,,30.37,191,,30.37,245
30.4,130,,30.4,189,,30.4,256
30.43,119,,30.43,205,,30.43,254
30.46,129,,30.46,183,,30.46,280
30.49,138,,30.49,185,,30.49,287
30.52,134,,30.52,190,,30.52,294
30.55,137,,30.55,211,,30.55,296
30.58,131,,30.58,218,,30.58,307
30.61,139,,30.61,187,,30.61,365
30.64,131,,30.64,213,,30.64,338
30.67,133,,30.67,229,,30.67,405
30.7,144,,30.7,220,,30.7,458
30.73,130,,30.73,239,,30.73,492
30.76,155,,30.76,243,,30.76,511
30.79,140,,30.79,238,,30.79,584
30.82,138,,30.82,221,,30.82,621
30.85,122,,30.85,267,,30.85,697
30.88,127,,30.88,278,,30.88,766
30.91,143,,30.91,280,,30.91,793
30.94,130,,30.94,270,,30.94,784
30.97,128,,30.97,300,,30.97,866
31,125,,31,303,,31,789
31.03,123,,31.03,329,,31.03,768
31.06,137,,31.06,353,,31.06,745
31.09,146,,31.09,378,,31.09,712
31.12,138,,31.12,365,,31.12,641
31.15,156,,31.15,361,,31.15,631
31.18,130,,31.18,375,,31.18,570
31.21,127,,31.21,351,,31.21,517
31.24,139,,31.24,353,,31.24,465
31.27,140,,31.27,326,,31.27,448
31.3,135,,31.3,321,,31.3,402
31.33,126,,31.33,325,,31.33,360
31.36,128,,31.36,352,,31.36,333
31.39,121,,31.39,327,,31.39,329
31.42,148,,31.42,299,,31.42,275
31.45,122,,31.45,278,,31.45,309
31.48,122,,31.48,269,,31.48,275
31.51,128,,31.51,259,,31.51,261
31.54,130,,31.54,258,,31.54,257
31.57,132,,31.57,220,,31.57,246
31.6,137,,31.6,213,,31.6,224
31.63,126,,31.63,230,,31.63,216
31.66,124,,31.66,219,,31.66,234
31.69,119,,31.69,216,,31.69,220
31.72,131,,31.72,185,,31.72,209
31.75,146,,31.75,190,,31.75,208
31.78,120,,31.78,205,,31.78,217
31.81,139,,31.81,203,,31.81,205
31.84,131,,31.84,200,,31.84,213
31.87,141,,31.87,191,,31.87,205
31.9,120,,31.9,183,,31.9,223
31.93,152,,31.93,219,,31.93,189
31.96,143,,31.96,188,,31.96,195
31.99,120,,31.99,182,,31.99,198
32.02,137,,32.02,177,,32.02,216
32.05,118,,32.05,188,,32.05,203
32.08,138,,32.08,204,,32.08,202
32.11,107,,32.11,188,,32.11,197
32.14,117,,32.14,176,,32.14,191
32.17,125,,32.17,179,,32.17,181
32.2,131,,32.2,191,,32.2,177
32.23,138,,32.23,199,,32.23,191
32.26,135,,32.26,185,,32.26,214
32.29,143,,32.29,186,,32.29,180
32.32,122,,32.32,197,,32.32,200
32.35,140,,32.35,202,,32.35,198
32.38,134,,32.38,196,,32.38,180
32.41,135,,32.41,193,,32.41,180
32.44,120,,32.44,209,,32.44,196
32.47,118,,32.47,236,,32.47,190
32.5,123,,32.5,199,,32.5,205
32.53,130,,32.53,187,,32.53,195
32.56,129,,32.56,211,,32.56,186
32.59,129,,32.59,201,,32.59,204
32.62,128,,32.62,191,,32.62,216
32.65,143,,32.65,203,,32.65,218
32.68,129,,32.68,192,,32.68,206
32.71,124,,32.71,195,,32.71,227
32.74,122,,32.74,203,,32.74,205
32.77,120,,32.77,194,,32.77,227
32.8,140,,32.8,179,,32.8,221
32.83,126,,32.83,200,,32.83,250
32.86,121,,32.86,189,,32.86,225
32.89,117,,32.89,207,,32.89,225
32.92,123,,32.92,183,,32.92,261
32.95,140,,32.95,192,,32.95,269
32.98,125,,32.98,184,,32.98,254
33.01,136,,33.01,183,,33.01,271
33.04,134,,33.04,182,,33.04,259
33.07,128,,33.07,195,,33.07,296
33.1,133,,33.1,172,,33.1,284
33.13,131,,33.13,198,,33.13,272
33.16,129,,33.16,194,,33.16,291
33.19,115,,33.19,191,,33.19,284
33.22,143,,33.22,186,,33.22,302
33.25,123,,33.25,211,,33.25,284
33.28,126,,33.28,198,,33.28,240
33.31,143,,33.31,204,,33.31,227
33.34,132,,33.34,214,,33.34,229
33.37,115,,33.37,191,,33.37,228
33.4,120,,33.4,226,,33.4,252
33.43,123,,33.43,202,,33.43,241
33.46,111,,33.46,229,,33.46,205
33.49,113,,33.49,227,,33.49,226
33.52,132,,33.52,227,,33.52,219
33.55,129,,33.55,238,,33.55,204
33.58,112,,33.58,269,,33.58,207
33.61,131,,33.61,294,,33.61,212
33.64,111,,33.64,291,,33.64,209
33.67,134,,33.67,287,,33.67,193
33.7,111,,33.7,296,,33.7,190
33.73,123,,33.73,333,,33.73,172
33.76,118,,33.76,358,,33.76,182
33.79,134,,33.79,353,,33.79,172
33.82,115,,33.82,345,,33.82,186
33.85,128,,33.85,401,,33.85,180
33.88,148,,33.88,379,,33.88,174
33.91,108,,33.91,418,,33.91,191
33.94,115,,33.94,393,,33.94,184
33.97,120,,33.97,413,,33.97,163
34,121,,34,403,,34,179
34.03,118,,34.03,405,,34.03,181
34.06,101,,34.06,418,,34.06,172
34.09,124,,34.09,387,,34.09,169
34.12,119,,34.12,375,,34.12,162
34.15,136,,34.15,363,,34.15,164
34.18,121,,34.18,357,,34.18,169
34.21,120,,34.21,343,,34.21,178
34.24,123,,34.24,309,,34.24,183
34.27,127,,34.27,296,,34.27,184
34.3,133,,34.3,260,,34.3,178
34.33,127,,34.33,274,,34.33,195
34.36,113,,34.36,246,,34.36,171
34.39,138,,34.39,251,,34.39,194
34.42,124,,34.42,219,,34.42,172
34.45,132,,34.45,218,,34.45,167
34.48,135,,34.48,192,,34.48,180
34.51,132,,34.51,209,,34.51,166
34.54,109,,34.54,184,,34.54,172
34.57,135,,34.57,230,,34.57,174
34.6,126,,34.6,217,,34.6,188
34.63,139,,34.63,196,,34.63,182
34.66,118,,34.66,204,,34.66,179
34.69,125,,34.69,184,,34.69,166
34.72,114,,34.72,183,,34.72,168
34.75,121,,34.75,180,,34.75,157
34.78,136,,34.78,196,,34.78,186
34.81,133,,34.81,203,,34.81,166
34.84,142,,34.84,190,,34.84,178
34.87,126,,34.87,196,,34.87,185
34.9,149,,34.9,168,,34.9,171
34.93,119,,34.93,164,,34.93,178
34.96,144,,34.96,176,,34.96,172
34.99,148,,34.99,174,,34.99,171
35.02,118,,35.02,175,,35.02,194
35.05,120,,35.05,194,,35.05,186
35.08,135,,35.08,180,,35.08,180
35.11,130,,35.11,180,,35.11,156
35.14,139,,35.14,183,,35.14,183
35.17,126,,35.17,188,,35.17,190
35.2,118,,35.2,177,,35.2,168
35.23,133,,35.23,183,,35.23,193
35.26,123,,35.26,173,,35.26,172
35.29,136,,35.29,173,,35.29,193
35.32,118,,35.32,188,,35.32,163
35.35,116,,35.35,195,,35.35,172
35.38,133,,35.38,197,,35.38,196
35.41,127,,35.41,182,,35.41,182
35.44,108,,35.44,186,,35.44,176
35.47,141,,35.47,175,,35.47,202
35.5,130,,35.5,164,,35.5,174
35.53,125,,35.53,199,,35.53,196
35.56,148,,35.56,174,,35.56,161
35.59,133,,35.59,186,,35.59,171
35.62,129,,35.62,197,,35.62,204
35.65,131,,35.65,186,,35.65,187
35.68,134,,35.68,173,,35.68,185
35.71,149,,35.71,174,,35.71,184
35.74,152,,35.74,190,,35.74,178
35.77,127,,35.77,197,,35.77,195
35.8,161,,35.8,178,,35.8,210
35.83,136,,35.83,191,,35.83,186
35.86,124,,35.86,177,,35.86,198
35.89,142,,35.89,190,,35.89,165
35.92,131,,35.92,190,,35.92,191
35.95,141,,35.95,184,,35.95,182
35.98,157,,35.98,171,,35.98,213
36.01,139,,36.01,201,,36.01,180
36.04,167,,36.04,216,,36.04,169
36.07,152,,36.07,205,,36.07,187
36.1,159,,36.1,175,,36.1,184
36.13,170,,36.13,207,,36.13,214
36.16,147,,36.16,206,,36.16,198
36.19,152,,36.19,210,,36.19,178
36.22,176,,36.22,223,,36.22,180
36.25,177,,36.25,218,,36.25,173
36.28,172,,36.28,245,,36.28,194
36.31,191,,36.31,219,,36.31,190
36.34,192,,36.34,238,,36.34,188
36.37,214,,36.37,231,,36.37,202
36.4,206,,36.4,274,,36.4,194
36.43,230,,36.43,244,,36.43,213
36.46,234,,36.46,244,,36.46,219
36.49,227,,36.49,278,,36.49,219
36.52,282,,36.52,256,,36.52,235
36.55,315,,36.55,294,,36.55,243
36.58,329,,36.58,277,,36.58,267
36.61,350,,36.61,264,,36.61,297
36.64,382,,36.64,276,,36.64,266
36.67,446,,36.67,249,,36.67,292
36.7,462,,36.7,261,,36.7,283
36.73,582,,36.73,234,,36.73,339
36.76,681,,36.76,264,,36.76,319
36.79,744,,36.79,249,,36.79,298
36.82,881,,36.82,217,,36.82,306
36.85,960,,36.85,255,,36.85,299
36.88,1049,,36.88,252,,36.88,289
36.91,1239,,36.91,237,,36.91,279
36.94,1313,,36.94,250,,36.94,273
36.97,1383,,36.97,264,,36.97,274
37,1382,,37,262,,37,267
37.03,1492,,37.03,294,,37.03,240
37.06,1494,,37.06,241,,37.06,223
37.09,1456,,37.09,289,,37.09,240
37.12,1402,,37.12,303,,37.12,254
37.15,1341,,37.15,297,,37.15,226
37.18,1305,,37.18,316,,37.18,237
37.21,1195,,37.21,353,,37.21,242
37.24,1039,,37.24,350,,37.24,251
37.27,928,,37.27,411,,37.27,259
37.3,844,,37.3,469,,37.3,302
37.33,798,,37.33,493,,37.33,270
37.36,665,,37.36,542,,37.36,301
37.39,578,,37.39,597,,37.39,343
37.42,495,,37.42,624,,37.42,358
37.45,465,,37.45,646,,37.45,373
37.48,423,,37.48,825,,37.48,388
37.51,382,,37.51,868,,37.51,413
37.54,316,,37.54,951,,37.54,438
37.57,307,,37.57,1082,,37.57,465
37.6,240,,37.6,1193,,37.6,490
37.63,250,,37.63,1246,,37.63,540
37.66,234,,37.66,1390,,37.66,551
37.69,222,,37.69,1442,,37.69,587
37.72,202,,37.72,1525,,37.72,605
37.75,210,,37.75,1579,,37.75,631
37.78,161,,37.78,1597,,37.78,647
37.81,181,,37.81,1577,,37.81,693
37.84,192,,37.84,1532,,37.84,703
37.87,165,,37.87,1557,,37.87,739
37.9,150,,37.9,1515,,37.9,725
37.93,153,,37.93,1511,,37.93,745
37.96,163,,37.96,1407,,37.96,743
37.99,139,,37.99,1245,,37.99,759
38.02,143,,38.02,1111,,38.02,693
38.05,130,,38.05,999,,38.05,686
38.08,143,,38.08,937,,38.08,677
38.11,134,,38.11,837,,38.11,631
38.14,127,,38.14,715,,38.14,559
38.17,145,,38.17,661,,38.17,536
38.2,136,,38.2,612,,38.2,504
38.23,113,,38.23,534,,38.23,444
38.26,124,,38.26,447,,38.26,448
38.29,146,,38.29,459,,38.29,372
38.32,127,,38.32,387,,38.32,370
38.35,119,,38.35,384,,38.35,347
38.38,120,,38.38,330,,38.38,306
38.41,118,,38.41,324,,38.41,252
38.44,108,,38.44,294,,38.44,255
38.47,109,,38.47,286,,38.47,275
38.5,131,,38.5,285,,38.5,244
38.53,122,,38.53,255,,38.53,236
38.56,109,,38.56,260,,38.56,226
38.59,105,,38.59,271,,38.59,239
38.62,115,,38.62,233,,38.62,218
38.65,119,,38.65,240,,38.65,233
38.68,110,,38.68,251,,38.68,250
38.71,104,,38.71,232,,38.71,219
38.74,105,,38.74,252,,38.74,240
38.77,123,,38.77,270,,38.77,242
38.8,93,,38.8,239,,38.8,252
38.83,106,,38.83,233,,38.83,260
38.86,110,,38.86,248,,38.86,240
38.89,119,,38.89,224,,38.89,233
38.92,111,,38.92,234,,38.92,242
38.95,105,,38.95,238,,38.95,251
38.98,98,,38.98,250,,38.98,235
39.01,111,,39.01,243,,39.01,217
39.04,102,,39.04,232,,39.04,224
39.07,125,,39.07,243,,39.07,227
39.1,119,,39.1,229,,39.1,197
39.13,85,,39.13,212,,39.13,197
39.16,102,,39.16,227,,39.16,184
39.19,92,,39.19,222,,39.19,200
39.22,88,,39.22,198,,39.22,196
39.25,111,,39.25,210,,39.25,157
39.28,115,,39.28,235,,39.28,185
39.31,115,,39.31,214,,39.31,178
39.34,104,,39.34,202,,39.34,160
39.37,107,,39.37,194,,39.37,171
39.4,89,,39.4,167,,39.4,173
39.43,109,,39.43,188,,39.43,155
39.46,106,,39.46,174,,39.46,163
39.49,96,,39.49,194,,39.49,180
39.52,107,,39.52,155,,39.52,147
39.55,91,,39.55,166,,39.55,177
39.58,85,,39.58,170,,39.58,149
39.61,110,,39.61,160,,39.61,155
39.64,103,,39.64,158,,39.64,163
39.67,88,,39.67,155,,39.67,160
39.7,87,,39.7,163,,39.7,152
39.73,84,,39.73,164,,39.73,156
39.76,119,,39.76,162,,39.76,145
39.79,102,,39.79,166,,39.79,146
39.82,93,,39.82,158,,39.82,154
39.85,106,,39.85,173,,39.85,148
39.88,92,,39.88,148,,39.88,148
39.91,97,,39.91,173,,39.91,135
39.94,106,,39.94,161,,39.94,133
39.97,95,,39.97,169,,39.97,155
40,90,,40,166,,40,154
40.03,107,,40.03,160,,40.03,136
40.06,99,,40.06,170,,40.06,151
40.09,95,,40.09,155,,40.09,150
40.12,84,,40.12,160,,40.12,152
40.15,107,,40.15,167,,40.15,142
40.18,98,,40.18,163,,40.18,144
40.21,98,,40.21,162,,40.21,140
40.24,88,,40.24,181,,40.24,145
40.27,95,,40.27,166,,40.27,139
40.3,88,,40.3,170,,40.3,137
40.33,82,,40.33,161,,40.33,147
40.36,101,,40.36,196,,40.36,139
40.39,94,,40.39,174,,40.39,143
40.42,93,,40.42,173,,40.42,144
40.45,85,,40.45,153,,40.45,153
40.48,84,,40.48,164,,40.48,133
40.51,96,,40.51,165,,40.51,144
40.54,90,,40.54,156,,40.54,143
40.57,99,,40.57,184,,40.57,145
40.6,86,,40.6,168,,40.6,142
40.63,103,,40.63,162,,40.63,166
40.66,109,,40.66,168,,40.66,159
40.69,96,,40.69,164,,40.69,151
40.72,104,,40.72,181,,40.72,146
40.75,101,,40.75,194,,40.75,123
40.78,91,,40.78,163,,40.78,145
40.81,95,,40.81,158,,40.81,146
40.84,91,,40.84,177,,40.84,155
40.87,109,,40.87,191,,40.87,138
40.9,86,,40.9,190,,40.9,137
40.93,99,,40.93,197,,40.93,133
40.96,87,,40.96,224,,40.96,155
40.99,93,,40.99,232,,40.99,135
41.02,105,,41.02,223,,41.02,145
41.05,93,,41.05,238,,41.05,145
41.08,97,,41.08,242,,41.08,146
41.11,104,,41.11,259,,41.11,121
41.14,94,,41.14,249,,41.14,130
41.17,97,,41.17,272,,41.17,140
41.2,89,,41.2,282,,41.2,145
41.23,95,,41.23,271,,41.23,143
41.26,84,,41.26,292,,41.26,137
41.29,97,,41.29,271,,41.29,127
41.32,92,,41.32,301,,41.32,142
41.35,109,,41.35,296,,41.35,157
41.38,113,,41.38,295,,41.38,141
41.41,100,,41.41,267,,41.41,130
41.44,91,,41.44,267,,41.44,144
41.47,89,,41.47,242,,41.47,131
41.5,103,,41.5,232,,41.5,136
41.53,95,,41.53,262,,41.53,137
41.56,105,,41.56,253,,41.56,131
41.59,93,,41.59,240,,41.59,133
41.62,97,,41.62,248,,41.62,125
41.65,100,,41.65,227,,41.65,144
41.68,110,,41.68,210,,41.68,130
41.71,80,,41.71,212,,41.71,139
41.74,95,,41.74,183,,41.74,117
41.77,101,,41.77,200,,41.77,135
41.8,108,,41.8,185,,41.8,151
41.83,104,,41.83,182,,41.83,143
41.86,102,,41.86,199,,41.86,120
41.89,94,,41.89,167,,41.89,138
41.92,100,,41.92,172,,41.92,135
41.95,93,,41.95,179,,41.95,129
41.98,92,,41.98,183,,41.98,132
42.01,103,,42.01,174,,42.01,126
42.04,91,,42.04,184,,42.04,125
42.07,99,,42.07,190,,42.07,135
42.1,96,,42.1,162,,42.1,139
42.13,110,,42.13,174,,42.13,129
42.16,105,,42.16,159,,42.16,155
42.19,92,,42.19,173,,42.19,141
42.22,105,,42.22,184,,42.22,141
42.25,96,,42.25,175,,42.25,131
42.28,96,,42.28,161,,42.28,150
42.31,101,,42.31,162,,42.31,140
42.34,80,,42.34,180,,42.34,155
42.37,105,,42.37,182,,42.37,156
42.4,93,,42.4,187,,42.4,159
42.43,107,,42.43,186,,42.43,152
42.46,115,,42.46,208,,42.46,198
42.49,108,,42.49,178,,42.49,154
42.52,109,,42.52,185,,42.52,170
42.55,108,,42.55,185,,42.55,182
42.58,124,,42.58,183,,42.58,189
42.61,108,,42.61,188,,42.61,199
42.64,116,,42.64,192,,42.64,185
42.67,122,,42.67,180,,42.67,201
42.7,129,,42.7,161,,42.7,224
42.73,112,,42.73,165,,42.73,214
42.76,149,,42.76,162,,42.76,263
42.79,121,,42.79,177,,42.79,268
42.82,119,,42.82,171,,42.82,268
42.85,133,,42.85,185,,42.85,295
42.88,121,,42.88,183,,42.88,273
42.91,138,,42.91,164,,42.91,328
42.94,140,,42.94,157,,42.94,287
42.97,161,,42.97,180,,42.97,311
43,145,,43,176,,43,326
43.03,173,,43.03,193,,43.03,305
43.06,159,,43.06,201,,43.06,274
43.09,172,,43.09,198,,43.09,285
43.12,164,,43.12,205,,43.12,253
43.15,207,,43.15,201,,43.15,247
43.18,215,,43.18,205,,43.18,261
43.21,234,,43.21,200,,43.21,261
43.24,249,,43.24,217,,43.24,229
43.27,287,,43.27,213,,43.27,197
43.3,297,,43.3,248,,43.3,203
43.33,370,,43.33,232,,43.33,182
43.36,404,,43.36,243,,43.36,199
43.39,451,,43.39,264,,43.39,214
43.42,505,,43.42,269,,43.42,191
43.45,576,,43.45,280,,43.45,182
43.48,630,,43.48,264,,43.48,187
43.51,688,,43.51,285,,43.51,214
43.54,865,,43.54,284,,43.54,229
43.57,894,,43.57,314,,43.57,209
43.6,984,,43.6,294,,43.6,219
43.63,1010,,43.63,284,,43.63,216
43.66,1098,,43.66,292,,43.66,230
43.69,1125,,43.69,277,,43.69,207
43.72,1148,,43.72,270,,43.72,216
43.75,1119,,43.75,279,,43.75,195
43.78,1101,,43.78,288,,43.78,228
43.81,1044,,43.81,305,,43.81,214
43.84,1015,,43.84,280,,43.84,208
43.87,890,,43.87,255,,43.87,202
43.9,864,,43.9,273,,43.9,186
43.93,757,,43.93,296,,43.93,196
43.96,710,,43.96,292,,43.96,197
43.99,615,,43.99,289,,43.99,185
44.02,542,,44.02,313,,44.02,168
44.05,494,,44.05,334,,44.05,171
44.08,408,,44.08,330,,44.08,171
44.11,368,,44.11,363,,44.11,147
44.14,345,,44.14,361,,44.14,157
44.17,311,,44.17,423,,44.17,162
44.2,277,,44.2,459,,44.2,145
44.23,262,,44.23,509,,44.23,152
44.26,216,,44.26,524,,44.26,148
44.29,207,,44.29,541,,44.29,139
44.32,190,,44.32,583,,44.32,146
44.35,198,,44.35,704,,44.35,126
44.38,177,,44.38,721,,44.38,151
44.41,156,,44.41,768,,44.41,125
44.44,152,,44.44,855,,44.44,162
44.47,139,,44.47,867,,44.47,162
44.5,127,,44.5,933,,44.5,132
44.53,138,,44.53,952,,44.53,131
44.56,150,,44.56,1028,,44.56,155
44.59,140,,44.59,1053,,44.59,162
44.62,125,,44.62,1070,,44.62,179
44.65,120,,44.65,1060,,44.65,158
44.68,121,,44.68,1032,,44.68,150
44.71,105,,44.71,969,,44.71,175
44.74,117,,44.74,958,,44.74,167
44.77,107,,44.77,923,,44.77,175
44.8,111,,44.8,843,,44.8,188
44.83,117,,44.83,763,,44.83,182
44.86,129,,44.86,738,,44.86,187
44.89,111,,44.89,696,,44.89,174
44.92,106,,44.92,637,,44.92,179
44.95,106,,44.95,548,,44.95,172
44.98,116,,44.98,511,,44.98,158
45.01,95,,45.01,467,,45.01,147
45.04,102,,45.04,464,,45.04,164
45.07,125,,45.07,396,,45.07,161
45.1,115,,45.1,353,,45.1,166
45.13,120,,45.13,363,,45.13,149
45.16,125,,45.16,335,,45.16,155
45.19,127,,45.19,337,,45.19,135
45.22,117,,45.22,311,,45.22,138
45.25,129,,45.25,307,,45.25,162
45.28,120,,45.28,285,,45.28,150
45.31,133,,45.31,305,,45.31,146
45.34,129,,45.34,284,,45.34,148
45.37,149,,45.37,285,,45.37,152
45.4,154,,45.4,311,,45.4,164
45.43,143,,45.43,307,,45.43,168
45.46,172,,45.46,274,,45.46,148
45.49,198,,45.49,341,,45.49,174
45.52,184,,45.52,332,,45.52,174
45.55,206,,45.55,342,,45.55,153
45.58,219,,45.58,327,,45.58,180
45.61,247,,45.61,327,,45.61,144
45.64,256,,45.64,328,,45.64,146
45.67,273,,45.67,343,,45.67,153
45.7,256,,45.7,341,,45.7,160
45.73,289,,45.73,297,,45.73,162
45.76,301,,45.76,335,,45.76,153
45.79,265,,45.79,302,,45.79,141
45.82,253,,45.82,282,,45.82,155
45.85,256,,45.85,300,,45.85,142
45.88,227,,45.88,300,,45.88,135
45.91,254,,45.91,272,,45.91,149
45.94,222,,45.94,265,,45.94,136
45.97,214,,45.97,256,,45.97,138
46,202,,46,247,,46,130
46.03,177,,46.03,226,,46.03,131
46.06,191,,46.06,212,,46.06,134
46.09,176,,46.09,209,,46.09,154
46.12,163,,46.12,218,,46.12,112
46.15,154,,46.15,208,,46.15,132
46.18,120,,46.18,201,,46.18,110
46.21,140,,46.21,200,,46.21,118
46.24,115,,46.24,187,,46.24,130
46.27,122,,46.27,221,,46.27,119
46.3,127,,46.3,221,,46.3,120
46.33,115,,46.33,214,,46.33,122
46.36,114,,46.36,195,,46.36,120
46.39,99,,46.39,232,,46.39,114
46.42,83,,46.42,237,,46.42,113
46.45,99,,46.45,249,,46.45,116
46.48,103,,46.48,235,,46.48,121
46.51,92,,46.51,279,,46.51,113
46.54,91,,46.54,250,,46.54,123
46.57,100,,46.57,285,,46.57,124
46.6,97,,46.6,257,,46.6,125
46.63,91,,46.63,270,,46.63,131
46.66,92,,46.66,282,,46.66,136
46.69,95,,46.69,301,,46.69,128
46.72,80,,46.72,299,,46.72,121
46.75,83,,46.75,275,,46.75,123
46.78,80,,46.78,306,,46.78,115
46.81,77,,46.81,280,,46.81,123
46.84,81,,46.84,259,,46.84,109
46.87,106,,46.87,277,,46.87,118
46.9,82,,46.9,254,,46.9,114
46.93,84,,46.93,239,,46.93,109
46.96,75,,46.96,217,,46.96,125
46.99,86,,46.99,221,,46.99,112
47.02,74,,47.02,211,,47.02,120
47.05,76,,47.05,194,,47.05,135
47.08,90,,47.08,203,,47.08,124
47.11,87,,47.11,176,,47.11,120
47.14,100,,47.14,177,,47.14,130
47.17,91,,47.17,189,,47.17,112
47.2,83,,47.2,175,,47.2,116
47.23,86,,47.23,185,,47.23,113
47.26,97,,47.26,181,,47.26,145
47.29,81,,47.29,153,,47.29,125
47.32,67,,47.32,186,,47.32,110
47.35,85,,47.35,184,,47.35,114
47.38,76,,47.38,182,,47.38,115
47.41,79,,47.41,170,,47.41,125
47.44,99,,47.44,174,,47.44,115
47.47,82,,47.47,202,,47.47,115
47.5,80,,47.5,181,,47.5,115
47.53,68,,47.53,153,,47.53,123
47.56,68,,47.56,192,,47.56,121
47.59,71,,47.59,192,,47.59,110
47.62,79,,47.62,180,,47.62,109
47.65,84,,47.65,196,,47.65,123
47.68,83,,47.68,213,,47.68,134
47.71,84,,47.71,192,,47.71,106
47.74,80,,47.74,211,,47.74,122
47.77,77,,47.77,189,,47.77,105
47.8,77,,47.8,176,,47.8,107
47.83,85,,47.83,188,,47.83,110
47.86,75,,47.86,176,,47.86,118
47.89,75,,47.89,200,,47.89,117
47.92,73,,47.92,174,,47.92,113
47.95,73,,47.95,155,,47.95,131
47.98,81,,47.98,176,,47.98,124
48.01,77,,48.01,151,,48.01,129
48.04,90,,48.04,159,,48.04,128
48.07,76,,48.07,160,,48.07,113
48.1,74,,48.1,178,,48.1,125
48.13,75,,48.13,172,,48.13,114
48.16,78,,48.16,171,,48.16,120
48.19,71,,48.19,158,,48.19,124
48.22,88,,48.22,135,,48.22,119
48.25,73,,48.25,148,,48.25,126
48.28,73,,48.28,159,,48.28,119
48.31,75,,48.31,152,,48.31,104
48.34,78,,48.34,149,,48.34,117
48.37,81,,48.37,144,,48.37,111
48.4,74,,48.4,157,,48.4,109
48.43,88,,48.43,169,,48.43,141
48.46,90,,48.46,161,,48.46,130
48.49,83,,48.49,160,,48.49,139
48.52,78,,48.52,167,,48.52,110
48.55,72,,48.55,149,,48.55,127
48.58,74,,48.58,144,,48.58,131
48.61,79,,48.61,164,,48.61,112
48.64,85,,48.64,175,,48.64,130
48.67,73,,48.67,156,,48.67,128
48.7,74,,48.7,155,,48.7,114
48.73,75,,48.73,164,,48.73,124
48.76,75,,48.76,155,,48.76,122
48.79,69,,48.79,169,,48.79,123
48.82,77,,48.82,159,,48.82,121
48.85,56,,48.85,151,,48.85,111
48.88,76,,48.88,161,,48.88,145
48.91,69,,48.91,155,,48.91,143
48.94,72,,48.94,157,,48.94,128
48.97,78,,48.97,140,,48.97,130
49,78,,49,165,,49,145
49.03,77,,49.03,159,,49.03,147
49.06,81,,49.06,142,,49.06,149
49.09,84,,49.09,153,,49.09,141
49.12,82,,49.12,150,,49.12,153
49.15,84,,49.15,145,,49.15,179
49.18,70,,49.18,141,,49.18,178
49.21,78,,49.21,161,,49.21,185
49.24,84,,49.24,145,,49.24,188
49.27,84,,49.27,173,,49.27,194
49.3,70,,49.3,153,,49.3,225
49.33,79,,49.33,171,,49.33,213
49.36,67,,49.36,156,,49.36,233
49.39,84,,49.39,164,,49.39,256
49.42,80,,49.42,177,,49.42,242
49.45,72,,49.45,172,,49.45,246
49.48,88,,49.48,199,,49.48,223
49.51,71,,49.51,183,,49.51,232
49.54,79,,49.54,180,,49.54,208
49.57,76,,49.57,197,,49.57,219
49.6,69,,49.6,210,,49.6,234
49.63,79,,49.63,219,,49.63,194
49.66,85,,49.66,202,,49.66,198
49.69,91,,49.69,200,,49.69,211
49.72,75,,49.72,213,,49.72,181
49.75,78,,49.75,187,,49.75,210
49.78,76,,49.78,203,,49.78,167
49.81,81,,49.81,210,,49.81,174
49.84,70,,49.84,240,,49.84,165
49.87,78,,49.87,183,,49.87,156
49.9,74,,49.9,185,,49.9,160
49.93,68,,49.93,179,,49.93,173
49.96,61,,49.96,201,,49.96,170
49.99,72,,49.99,198,,49.99,160
50.02,64,,50.02,173,,50.02,164
50.05,73,,50.05,173,,50.05,185
50.08,76,,50.08,163,,50.08,179
50.11,80,,50.11,149,,50.11,182
50.14,68,,50.14,169,,50.14,171
50.155,70,,50.155,153,,50.155,170