File: data/XRD_6_component_systems_repeat.csv
HTA1;HTA1;HTA2;HTA3;HTA4;HTA5;HTA6;HTA7;HTA8;HTA9;HTA10;HTA11;HTA12;HTA13;HTB1;HTB2;HTB3;HTB4;HTB5;HTB6;HTB7;HTB8;HTB9;HTB10;HTB11;HTB12;HTB13;HTC1;HTC2;HTC3;HTC4;HTC5;HTC6;HTC7;HTC8;HTC9;HTC10;HTC11;HTC12;HTC13;HTD1;HTD2;HTD3;HTD4;HTD5;HTD6;HTD7;HTD8;HTD9;HTD10;HTD11;HTD12;HTD13;HTE1;HTE2;HTE3;HTE4;HTE5;HTE6;HTE7;HTE8;HTE9;HTE10;HTE11;HTE12;HTE13;HTF1;HTF2;HTF3;HTF4;HTF5;HTF6;HTF7;HTF8;HTF9;HTF10;HTF11;HTF12;HTF13;HTG1;HTG2;HTG3;HTG4;HTG5;HTG6;HTG7;HTG8;HTG9;HTG10;HTG11;HTG12;HTG13;HTH1;HTH2;HTH3;HTH4;HTH5;HTH6;HTH7;HTH8;HTH9;HTH10;HTH11;HTH12;HTH13;HTI1;HTI2;HTI3;HTI4;HTI5;HTI6;HTI7;HTI8;HTI9;HTI10;HTI11;HTI12;HTI13;HTJ1;HTJ2;HTJ3;HTJ4;HTJ5;HTJ6;HTJ7;HTJ8;HTJ9;HTJ10;HTJ11;HTJ12;HTJ13;HTK1;HTK2;HTK3;HTK4;HTK5;HTK6;HTK7;HTK8;HTK9;HTK10;HTK11;HTK12;HTK13;HTL1;HTL2;HTL3;HTL4;HTL5;HTL6;HTL7;HTL8;HTL9;HTL10;HTL11;HTL12;HTL13;HTM1;HTM2;HTM3;HTM4;HTM5;HTM6;HTM7;HTM8;HTM9;HTM10;HTM11;HTM12;HTM13
25;1500;1105;203;194;201;173;214;231;548;847;1075;2288;2301;1071;191;175;190;183;210;175;201;233;550;839;1142;2363;196;190;208;197;199;192;196;194;191;289;611;903;1134;194;202;180;204;161;163;208;195;187;190;428;823;1015;198;180;199;173;215;185;201;178;201;190;355;689;938;200;191;189;193;188;201;193;209;200;205;284;579;886;190;188;191;192;180;182;194;198;182;195;260;566;851;195;212;190;227;210;190;201;201;186;185;281;642;911;181;194;180;228;190;193;184;188;199;177;370;711;927;171;183;185;178;176;181;186;175;190;203;450;715;1063;205;184;182;207;181;185;194;203;195;332;647;866;1148;1266;196;202;184;179;189;206;183;251;553;866;1080;2233;1540;1284;183;204;197;210;201;268;596;885;1185;2260;2151
25.57;1426;1044;169;177;187;208;192;244;531;822;1034;2221;2254;1032;207;189;200;195;202;184;193;228;554;832;1030;2275;188;199;205;208;194;212;195;195;168;306;621;859;1116;179;190;180;194;183;198;185;170;168;192;477;753;1042;196;190;187;204;170;201;172;187;211;185;394;626;956;208;196;186;188;180;221;193;205;192;200;316;590;887;204;191;169;178;211;194;186;186;191;189;297;627;889;197;201;204;195;194;207;204;212;176;196;289;620;887;184;181;206;181;185;202;178;195;213;218;373;662;944;198;203;191;195;210;187;203;182;185;202;528;731;1031;202;192;192;185;193;186;207;172;203;353;644;870;1091;1253;206;171;202;189;197;186;172;296;569;818;1084;2213;1483;1254;176;220;190;205;206;310;576;827;1151;2145;2060
26.14;1415;998;173;171;200;180;197;250;540;801;1037;2115;2070;990;193;217;202;210;192;202;179;258;539;785;1068;2123;205;221;188;171;206;191;191;189;204;308;599;824;1043;185;188;182;184;188;193;173;190;189;207;478;718;915;197;183;182;193;185;196;187;185;173;194;403;667;920;196;206;165;189;191;209;194;219;202;183;287;599;836;205;212;196;181;179;185;178;182;199;199;309;556;791;192;186;197;198;221;194;190;180;163;193;356;622;825;211;197;188;195;197;206;180;180;197;205;385;671;912;181;190;180;194;176;184;185;195;198;216;506;762;982;202;184;183;194;185;191;208;184;194;372;613;841;1128;1163;219;180;198;196;177;179;180;275;595;809;979;2084;1459;1195;190;197;212;185;208;331;569;837;1090;1983;2031
26.71;1341;989;190;206;180;166;197;272;531;767;1026;2074;1959;936;217;212;199;187;193;185;201;253;551;801;983;2070;183;189;207;180;195;194;205;211;194;363;589;821;1040;190;179;181;185;161;158;183;204;192;206;474;744;916;170;200;201;177;200;218;183;214;202;193;393;634;881;200;194;210;215;179;201;207;178;205;198;353;610;813;194;209;181;199;199;188;182;191;201;203;281;578;882;218;195;201;177;199;175;192;163;187;193;354;609;834;182;202;203;188;175;198;189;193;190;203;429;671;936;214;205;207;204;206;202;212;194;193;240;529;728;959;187;194;192;200;190;214;173;205;193;354;609;870;1041;1136;200;191;193;188;205;196;199;294;577;837;970;2011;1328;1104;212;203;190;216;199;337;577;848;1078;1939;1946
27.28;1285;953;183;192;187;193;197;310;544;749;966;1986;2024;845;196;202;190;220;196;199;209;303;518;733;962;1985;198;195;203;198;204;189;176;193;184;374;585;780;1012;194;178;197;195;201;189;203;200;200;215;484;735;903;188;190;199;192;205;196;195;201;192;186;399;641;867;191;178;215;202;202;196;192;179;203;182;364;611;806;198;212;187;204;180;201;182;192;173;181;332;572;838;204;191;204;191;186;203;203;194;197;189;379;625;826;214;182;196;189;187;194;180;205;176;197;405;649;861;203;197;180;188;198;185;187;167;191;239;510;733;892;193;203;207;187;203;194;202;186;200;381;593;827;1027;1051;195;201;205;194;172;172;185;335;569;782;916;1958;1260;1073;188;194;197;196;207;344;567;796;1008;1940;1856
27.85;1200;908;181;188;197;188;192;283;515;774;956;1905;1860;863;213;176;184;178;186;182;204;292;576;768;916;1916;210;184;218;189;185;189;198;192;200;345;591;770;958;189;184;188;172;173;184;174;177;183;237;504;762;908;185;199;210;205;187;216;209;199;198;188;400;631;847;206;188;195;175;201;202;193;205;194;196;378;608;792;189;209;207;186;210;185;192;203;192;181;337;574;780;201;191;183;197;188;182;176;193;197;200;395;633;831;201;196;193;183;182;192;154;220;187;186;444;637;857;199;180;180;201;200;183;206;187;190;257;534;726;897;178;206;195;187;202;179;178;184;189;411;578;792;982;1011;168;186;192;200;187;186;192;316;552;782;948;1859;1177;1020;202;227;195;194;191;360;568;796;955;1865;1748
28.42;1131;853;204;194;166;170;177;283;558;708;898;1857;1809;814;189;176;194;175;188;180;188;323;583;753;958;1819;170;201;193;180;192;203;175;194;184;380;575;802;893;192;178;188;187;193;182;185;173;193;234;484;687;894;196;190;197;188;206;208;186;181;222;206;436;644;800;201;185;176;191;222;228;184;189;206;209;414;576;760;197;216;177;183;186;220;218;183;186;197;328;524;760;202;223;193;222;201;195;187;194;192;192;376;576;801;201;190;205;206;188;198;167;213;205;217;398;662;801;198;208;195;191;196;169;174;198;195;287;483;688;890;176;177;192;189;191;201;180;172;214;419;609;754;917;942;204;187;183;207;204;188;178;341;552;746;928;1698;1135;987;183;194;202;193;191;335;552;767;912;1709;1665
28.99;1156;826;181;191;185;195;180;320;511;734;915;1762;1745;774;173;196;193;193;195;202;189;337;568;726;896;1770;199;190;193;194;186;182;196;187;196;403;612;729;923;189;181;183;169;180;165;180;194;183;267;504;687;837;173;178;175;194;207;185;206;179;194;214;414;602;779;194;188;182;214;185;183;195;198;197;187;391;581;755;186;199;192;194;197;185;188;180;181;191;362;545;747;191;176;205;190;176;204;200;188;195;182;366;594;756;189;201;182;178;199;172;162;194;194;226;433;593;827;211;179;201;188;178;187;188;208;182;284;485;698;840;191;201;210;209;211;200;177;186;179;392;611;773;917;905;188;188;207;203;189;184;181;352;551;760;873;1716;1109;944;214;200;217;189;198;354;532;721;885;1626;1631
29.56;1090;791;184;150;194;171;194;345;513;704;889;1697;1658;751;171;196;198;191;172;185;186;295;565;735;881;1702;174;188;202;194;175;173;193;202;224;371;555;714;895;180;184;170;173;175;166;183;206;174;291;446;638;807;176;178;197;200;207;190;210;188;165;228;415;636;776;181;174;201;177;173;189;184;190;200;206;357;559;710;183;185;173;170;183;180;189;187;186;182;368;568;746;179;189;187;197;180;169;179;203;204;197;383;584;763;190;179;192;173;185;176;167;184;200;237;408;611;781;187;194;178;175;173;181;202;169;194;266;507;712;843;182;184;165;185;186;193;194;178;189;410;599;734;887;901;186;166;199;172;191;179;187;336;514;712;863;1697;1055;921;180;209;198;194;196;349;562;757;922;1599;1536
30.13;1032;749;179;197;184;164;166;309;497;710;814;1576;1587;742;193;190;179;171;175;191;200;343;546;653;884;1628;188;186;181;178;170;199;186;170;194;404;565;706;865;175;205;196;163;192;189;179;179;182;286;462;602;774;177;186;173;165;186;196;181;193;184;247;454;613;704;196;182;207;172;186;177;172;183;190;199;380;573;697;188;183;189;161;192;187;189;181;174;177;350;577;720;185;207;197;200;176;181;172;186;174;206;383;604;764;177;186;192;197;178;176;161;188;186;264;434;628;756;186;181;188;177;193;191;176;171;175;286;505;672;796;168;213;180;161;184;193;187;192;208;397;571;762;824;899;204;178;196;181;165;202;185;353;528;744;814;1626;980;812;214;184;181;192;221;391;577;704;892;1518;1488
30.7;985;778;232;257;252;246;315;435;630;783;877;1503;1555;726;269;247;264;255;247;290;294;432;633;802;1001;1560;243;241;235;248;270;255;251;275;315;485;676;852;920;219;264;236;243;275;262;244;279;271;404;582;770;912;214;224;255;229;262;280;259;266;274;342;553;717;926;235;236;226;253;249;242;291;293;287;320;522;661;839;234;231;271;260;253;267;254;280;281;295;494;692;837;231;239;266;249;236;282;281;276;280;306;489;641;802;225;246;227;234;250;250;243;282;293;365;558;717;837;246;241;244;217;244;239;242;266;272;466;601;782;822;245;234;205;221;238;240;241;233;280;531;657;835;967;810;210;218;229;239;229;256;301;415;609;798;915;1521;980;842;250;207;240;252;295;421;625;783;908;1501;1441
31.27;926;973;862;864;884;915;932;1136;1377;1601;1935;1466;1444;895;833;849;833;902;948;938;1026;1249;1534;1786;2102;1505;830;855;788;797;887;864;919;1038;1073;1404;1620;1826;2087;760;759;762;814;796;870;928;985;1017;1215;1486;1704;1897;725;785;766;809;872;901;905;1014;1081;1186;1434;1670;1881;711;754;771;740;829;847;903;980;1084;1172;1331;1526;1621;667;699;742;760;756;890;925;932;997;1038;1256;1523;1583;690;675;729;756;797;815;916;912;961;999;1231;1459;1564;659;708;712;717;728;775;739;906;929;1045;1170;1444;1504;616;648;648;702;727;797;781;855;862;1062;1202;1319;1411;635;631;655;676;720;763;800;796;906;1085;1215;1315;1351;823;618;604;676;714;744;734;748;979;1166;1265;1402;1420;977;797;590;661;696;707;779;858;1091;1264;1406;1462;1387
31.84;905;776;286;251;267;266;290;423;596;704;905;1386;1381;704;295;280;277;275;268;287;283;449;628;810;907;1461;295;278;281;268;266;280;282;273;282;457;628;771;885;261;288;268;279;251;253;271;284;258;412;555;707;819;296;279;248;261;271;247;261;296;269;353;563;687;814;270;290;273;289;267;277;258;291;275;329;537;631;777;261;274;272;276;272;264;242;267;278;308;506;621;740;289;267;257;271;279;262;276;262;286;313;511;620;781;281;271;251;282;273;258;228;288;260;374;484;677;767;276;291;263;269;267;255;262;271;264;401;548;700;749;243;273;288;265;246;264;275;269;310;483;609;747;823;834;288;267;262;247;253;259;280;450;595;750;829;1334;940;790;259;274;272;273;337;463;603;719;863;1348;1266
32.41;862;679;182;174;168;169;184;356;497;597;701;1379;1387;646;167;178;175;155;168;169;208;327;488;658;730;1353;181;171;160;160;180;176;179;157;222;373;512;604;680;176;165;181;168;166;166;161;162;186;278;415;586;622;167;167;170;178;166;175;165;164;195;238;419;561;639;159;186;168;171;173;156;166;159;168;223;377;536;566;163;164;159;158;183;171;156;178;175;228;366;519;594;173;170;169;186;161;184;185;188;185;234;362;551;649;155;172;165;172;177;150;164;167;170;260;401;576;636;179;194;169;172;147;171;163;181;168;318;438;577;675;192;158;165;174;175;177;172;172;237;394;495;611;717;758;175;176;166;178;173;188;229;372;522;616;740;1253;882;753;180;177;173;177;235;372;486;621;725;1336;1274
32.98;848;648;155;160;159;153;195;366;462;559;733;1348;1286;656;159;164;131;171;151;149;191;363;463;612;715;1294;157;152;145;161;146;158;153;162;208;380;486;622;699;128;158;137;123;139;165;153;153;152;264;483;557;627;143;160;160;170;158;138;161;162;161;232;408;513;616;177;157;144;142;156;156;155;167;158;199;373;488;571;131;152;157;162;163;173;147;149;142;194;345;495;599;168;159;166;158;149;153;147;143;154;230;375;506;578;163;166;136;145;141;149;148;160;150;247;408;539;585;162;161;147;164;167;146;158;167;158;319;439;570;626;152;157;158;157;161;152;153;161;229;388;497;595;684;754;149;165;144;168;145;163;192;355;470;601;672;1236;866;755;146;143;161;175;223;361;467;612;721;1292;1221
33.55;766;593;149;161;150;159;202;329;455;561;666;1310;1235;585;162;158;183;144;163;146;179;288;465;577;655;1309;153;149;130;147;136;142;139;162;230;360;460;611;648;162;131;141;137;137;142;144;147;165;298;406;547;574;128;148;139;135;168;148;163;146;160;251;398;534;615;150;148;142;155;146;169;131;160;178;226;358;481;527;156;141;162;156;136;156;153;145;149;221;323;461;561;138;157;138;149;144;155;152;151;137;221;364;483;549;155;157;159;145;140;147;121;161;141;244;416;499;582;155;150;153;145;159;149;153;150;183;331;414;575;613;153;159;148;148;148;153;150;144;244;354;494;586;639;717;147;145;130;154;152;163;199;332;461;571;660;1182;774;665;140;137;154;148;233;358;451;589;667;1224;1161
34.12;784;573;134;143;146;139;204;319;440;546;620;1187;1182;562;142;132;146;138;125;127;189;336;465;550;661;1176;144;136;128;130;133;150;138;137;227;351;500;530;598;144;140;130;130;147;129;136;134;147;300;416;508;529;139;145;128;135;147;135;145;133;149;239;395;514;546;132;131;146;122;147;147;139;140;146;224;344;452;488;144;144;141;133;132;145;146;126;132;233;365;458;460;135;144;142;136;141;149;137;124;128;226;345;468;529;146;148;136;134;138;150;122;139;153;256;399;486;524;140;123;141;129;147;127;131;134;169;282;394;523;554;152;152;132;134;151;155;142;132;238;363;439;521;608;689;145;151;139;153;146;140;196;338;442;577;637;1140;788;673;132;157;150;126;232;328;461;577;656;1192;1084
34.69;727;590;141;122;139;129;209;317;414;571;671;1193;1192;570;137;131;146;135;140;136;199;339;418;555;613;1113;130;150;122;151;139;146;165;140;242;354;444;570;545;124;136;139;129;128;140;145;134;162;268;416;516;514;142;141;132;139;131;140;126;147;151;253;376;453;482;139;132;159;126;155;128;141;130;163;236;345;432;482;156;146;125;157;124;133;144;129;143;214;335;439;482;120;141;143;140;139;131;141;145;157;233;354;442;503;137;145;164;132;136;143;118;153;154;247;343;470;568;149;142;132;158;134;125;137;140;171;318;431;521;561;146;145;117;143;135;150;124;142;229;363;460;554;547;685;116;144;134;123;155;141;210;338;501;522;594;1060;747;642;153;144;149;136;209;348;446;549;648;1109;1017
35.26;734;554;134;137;128;153;203;286;436;556;619;1205;1057;559;143;154;134;142;139;143;215;342;445;528;613;1154;162;135;134;147;137;158;143;132;231;373;445;529;516;144;135;135;126;121;141;126;135;167;298;386;493;492;130;129;122;145;134;126;122;155;154;273;383;467;516;149;144;135;137;148;153;129;161;150;231;350;437;452;132;145;145;139;155;130;136;144;142;249;333;430;468;131;140;132;147;149;147;137;145;149;245;359;483;461;129;131;141;154;128;139;136;151;150;259;390;471;477;132;146;131;151;146;134;150;142;191;288;404;518;491;131;140;161;131;143;123;141;140;219;361;447;551;514;660;142;124;150;143;163;130;199;357;426;507;583;1062;743;643;142;147;154;156;237;332;419;528;640;1120;1018
35.83;757;556;129;128;125;134;188;333;399;503;590;1120;1040;519;125;147;131;132;139;148;208;356;406;497;592;1104;129;152;124;124;123;136;145;148;265;330;427;498;507;120;120;139;129;134;139;130;129;168;302;358;484;493;132;130;139;143;133;124;125;136;169;280;387;445;421;133;139;143;131;128;149;137;137;152;238;343;418;415;126;152;146;136;133;131;130;128;147;208;362;424;447;137;141;135;140;132;136;139;135;148;247;373;434;450;150;131;137;131;128;148;109;132;146;268;359;453;479;137;130;134;133;135;129;126;127;173;289;404;448;467;147;123;141;138;125;136;128;148;266;364;429;511;541;624;139;143;125;145;128;135;217;322;406;541;617;1039;718;656;131;144;126;129;241;323;423;546;558;1063;936
36.4;699;522;116;141;133;134;243;294;381;465;550;1121;1017;502;117;124;142;121;129;151;206;299;406;472;585;1033;135;155;142;142;126;139;140;169;261;327;444;499;491;123;134;134;113;120;133;127;119;182;315;400;495;485;135;140;129;127;142;148;129;145;146;257;332;434;414;140;128;113;147;127;129;127;134;137;233;362;408;427;140;128;148;141;129;145;120;130;160;272;314;404;419;139;131;125;155;130;142;129;140;156;251;352;405;424;133;128;127;127;148;145;111;138;167;257;357;429;433;137;143;140;124;132;136;128;136;188;297;403;463;457;138;123;129;132;121;145;133;145;260;347;402;526;477;613;131;128;127;124;140;150;226;339;427;529;531;984;673;593;127;139;130;139;248;326;433;517;590;1052;939
36.97;674;510;118;132;133;130;211;303;409;477;527;1085;994;483;123;126;132;143;146;137;226;330;414;482;550;922;142;123;135;136;137;128;131;154;247;332;416;509;458;126;114;134;130;126;136;159;122;194;292;388;479;402;123;121;131;126;121;139;119;115;167;297;391;427;450;126;147;125;125;135;124;123;153;141;261;352;400;419;111;129;128;130;140;125;137;128;146;229;338;430;376;137;135;132;119;138;134;151;131;154;237;350;451;382;148;115;134;139;118;123;126;135;157;279;350;455;400;125;135;129;143;142;127;141;139;198;295;370;471;455;130;128;145;134;129;124;135;146;264;342;394;477;456;572;150;137;127;151;142;141;221;341;451;476;524;924;653;608;131;139;141;147;241;338;423;511;566;1013;908
37.54;662;522;120;131;128;137;229;332;397;460;560;1059;940;463;122;141;122;141;138;130;214;316;426;470;568;967;127;146;137;125;115;125;135;143;249;328;415;488;479;107;105;111;131;137;132;126;117;174;292;366;478;412;134;148;137;118;122;128;135;122;152;269;347;413;419;135;129;127;138;136;130;128;143;146;269;339;421;378;131;124;129;129;134;141;124;134;147;238;336;380;398;113;137;145;140;142;130;127;141;149;243;358;454;398;126;138;127;142;133;145;111;153;171;252;376;418;395;149;123;148;120;117;138;128;127;200;290;382;446;398;125;136;146;137;126;127;114;152;266;349;413;444;447;576;137;130;151;137;144;135;237;316;395;497;534;910;654;580;143;127;135;143;243;326;411;489;553;993;804
38.11;637;484;117;123;132;125;209;280;368;465;524;966;871;455;146;127;123;138;132;131;231;307;397;454;557;879;131;108;117;118;120;122;125;139;235;321;416;437;407;126;117;113;120;120;121;124;126;198;269;327;436;419;127;140;132;149;121;115;142;133;153;248;345;386;405;132;138;127;131;123;132;132;135;158;254;315;388;372;127;123;138;125;121;137;122;132;147;242;322;367;367;127;123;155;127;124;134;121;133;144;290;339;408;359;128;117;108;114;140;115;123;127;177;264;353;417;376;138;115;129;143;111;136;126;131;199;315;362;396;377;145;126;114;125;136;136;134;152;241;308;398;461;428;580;136;139;138;132;122;142;236;309;401;484;513;851;614;546;124;122;139;146;249;300;391;460;513;940;856
38.68;616;474;120;121;118;129;222;325;356;418;497;950;862;454;130;124;129;138;125;131;230;313;381;478;509;853;123;119;130;123;120;114;123;171;242;317;378;418;394;112;114;125;126;116;119;108;128;204;277;372;401;363;119;110;120;116;114;117;111;111;180;280;343;384;368;116;120;129;128;142;121;125;122;170;256;339;373;357;115;116;130;148;131;120;128;124;149;244;318;383;369;130;124;129;138;134;121;112;122;154;250;316;378;370;117;110;135;130;110;119;101;124;168;257;316;401;387;120;120;114;124;132;132;132;129;215;322;370;395;382;132;146;122;126;131;134;114;147;224;317;408;483;405;558;134;121;134;133;114;136;239;294;383;467;505;823;586;559;132;125;138;154;232;324;396;435;525;953;789
39.25;578;471;118;127;124;139;233;283;373;409;440;923;816;456;115;111;117;128;135;162;240;297;343;426;497;829;134;117;111;107;115;119;111;153;239;334;334;405;418;108;112;116;118;115;129;131;119;207;301;333;417;345;119;128;101;125;125;132;138;130;181;273;342;378;357;116;128;110;126;117;118;111;123;161;238;296;373;347;110;108;104;126;131;118;125;113;143;221;297;343;326;120;128;128;115;105;122;121;129;160;242;307;368;363;108;126;131;121;131;119;96;124;181;264;347;336;320;141;108;119;118;113;123;120;132;219;251;370;392;364;114;116;127;121;132;121;140;166;265;328;356;383;361;518;121;113;116;132;102;151;232;306;397;436;445;834;617;510;119;120;134;165;224;311;389;461;493;899;786
39.82;545;460;95;109;110;123;205;290;354;411;484;865;817;434;109;123;118;123;130;144;218;301;344;414;445;884;132;116;101;108;120;114;107;157;225;298;375;376;377;106;110;106;128;115;112;115;108;172;281;348;355;324;111;111;122;109;125;117;108;125;171;247;339;335;327;106;117;109;121;123;133;122;120;159;226;296;358;303;132;110;120;116;106;115;122;117;140;234;297;337;320;119;109;115;104;115;109;115;110;167;242;288;358;357;122;123;112;124;120;130;103;135;157;265;340;354;301;113;123;115;117;109;115;93;116;204;263;355;366;328;121;114;121;123;124;111;114;159;256;329;359;419;371;536;131;117;114;119;112;167;228;308;352;408;456;799;600;494;115;118;116;167;233;325;374;420;496;805;716
40.39;566;430;100;110;99;151;219;287;311;413;461;835;805;438;110;109;111;94;101;145;236;262;357;437;412;796;103;106;112;98;115;95;124;168;223;289;339;380;349;107;121;103;107;107;90;133;129;201;248;341;340;342;119;118;98;101;121;102;107;123;162;240;313;334;322;111;106;125;119;117;120;110;119;153;223;271;313;304;102;96;125;104;113;113;124;111;153;233;309;335;328;103;111;117;101;110;101;110;118;159;244;326;335;296;109;111;107;104;106;113;97;133;188;241;291;357;301;101;124;116;111;107;113;97;131;206;263;343;363;321;128;130;111;121;114;108;105;163;237;282;337;396;330;560;99;113;134;112;116;158;244;276;343;381;390;742;546;494;113;125;112;177;241;294;360;428;471;818;730
40.96;575;442;115;110;102;138;201;260;330;395;430;844;767;410;113;116;108;86;95;141;207;299;322;391;392;743;110;94;106;103;96;114;112;165;231;298;344;356;320;98;103;111;102;83;101;95;119;210;247;309;335;316;92;98;107;101;120;98;96;98;186;230;319;329;292;106;101;108;97;103;110;106;109;162;230;298;296;288;105;98;103;111;109;112;100;115;150;213;307;290;272;111;115;126;98;109;103;104;103;181;233;308;298;299;106;99;114;128;107;100;91;100;194;288;324;323;280;122;116;96;93;105;117;105;128;216;277;341;324;291;103;116;100;112;112;108;116;159;249;327;364;374;312;488;96;115;102;103;113;160;246;275;340;412;378;755;559;494;105;99;108;165;240;294;339;391;446;801;717
41.53;520;443;105;102;103;153;206;254;324;351;423;770;727;434;103;93;96;95;108;139;225;268;319;399;370;733;99;90;101;104;91;96;124;156;217;288;339;352;314;106;93;94;100;85;100;98;127;196;248;292;331;287;85;109;99;92;111;107;97;112;158;225;268;320;277;103;90;91;111;112;102;103;92;174;237;288;325;250;101;108;99;103;93;102;118;108;158;228;294;309;254;106;116;94;111;94;104;96;90;141;240;307;302;265;108;100;109;105;101;79;99;107;206;232;303;324;266;103;106;96;93;101;101;106;129;191;285;298;332;291;104;113;102;99;94;106;105;165;206;284;331;322;296;488;104;94;90;96;90;152;222;275;341;412;371;739;541;483;116;110;113;158;218;269;333;388;435;755;645
42.1;497;462;91;89;96;134;218;261;298;347;419;770;704;400;90;84;102;95;99;141;214;283;323;385;372;759;96;84;90;98;110;108;106;139;202;278;322;331;291;91;104;80;87;95;80;94;123;186;255;296;296;260;81;94;97;94;96;101;102;113;187;234;297;298;303;95;80;101;105;99;93;101;115;161;228;270;279;274;106;98;98;103;106;92;86;101;142;216;256;273;252;103;98;105;112;100;85;83;105;159;224;289;286;256;101;97;99;96;100;79;76;121;178;248;270;296;252;93;104;106;96;100;89;104;121;203;247;301;316;287;119;100;96;103;88;91;96;178;226;292;308;308;291;468;100;104;105;105;104;158;195;257;335;367;383;677;497;491;110;104;93;164;221;266;303;370;397;770;671
42.67;509;394;84;95;98;136;203;253;309;346;415;734;671;381;95;92;97;81;98;143;219;249;323;355;369;690;95;96;98;77;106;88;100;163;225;247;306;275;282;92;80;94;83;95;87;99;124;188;239;268;277;259;86;87;96;86;81;82;89;122;161;239;282;266;278;86;94;80;95;85;88;111;103;159;235;284;272;234;97;93;86;85;96;95;90;111;156;240;269;284;252;96;107;93;91;86;85;104;91;166;219;272;292;247;86;97;96;95;92;90;80;110;177;232;266;275;276;85;89;95;83;83;94;88;153;189;258;277;287;301;104;95;117;93;78;98;114;171;222;281;325;291;305;453;104;85;97;95;99;119;230;266;340;393;325;674;502;444;107;99;100;184;211;272;320;358;375;711;627
43.24;517;398;96;95;78;129;194;261;308;327;379;737;685;384;80;82;96;85;89;153;191;265;307;347;344;669;96;82;87;90;96;98;96;155;209;252;331;266;293;67;91;89;88;97;79;83;123;191;245;290;269;266;78;96;108;78;80;94;84;101;163;226;281;265;254;99;83;74;88;92;88;109;105;163;226;258;274;260;95;103;87;79;93;81;78;90;144;210;260;247;251;101;92;99;86;84;91;94;93;154;214;268;267;248;77;99;88;91;93;95;94;119;170;228;267;280;237;83;90;88;102;85;103;87;132;191;245;295;278;260;95;81;82;90;94;93;105;180;221;267;322;295;264;501;84;92;82;93;87;165;191;271;311;346;337;677;491;453;93;105;110;163;231;264;302;353;387;677;626
43.81;474;394;98;86;87;149;205;257;278;326;363;659;660;369;102;95;91;78;92;148;206;239;286;346;328;671;81;104;72;85;89;77;99;157;205;249;301;301;291;82;107;86;82;77;85;89;127;192;276;297;242;258;98;79;98;82;79;83;85;110;172;218;296;247;242;85;74;79;84;88;96;106;119;172;215;240;241;233;86;79;77;81;81;92;83;114;161;210;250;246;243;100;83;94;99;98;77;93;95;164;223;265;233;238;96;80;96;88;84;106;82;122;175;211;268;254;258;80;86;96;99;86;86;78;130;180;257;289;266;242;95;80;89;104;89;90;103;167;222;281;299;294;272;433;91;98;85;84;88;127;191;254;321;339;314;600;492;496;80;108;98;184;203;272;304;330;403;696;590
44.38;454;385;97;88;104;166;227;249;320;316;372;698;599;366;89;87;97;103;108;152;227;294;304;356;331;625;102;91;101;92;88;95;140;171;216;268;298;266;274;90;96;83;88;78;102;97;137;202;247;298;284;273;91;90;82;92;93;96;97;134;183;237;262;259;238;89;83;99;89;97;86;95;108;175;233;267;240;237;101;78;88;108;92;75;89;110;154;205;264;246;246;92;84;86;90;90;86;91;112;169;226;268;252;224;84;84;101;80;91;96;95;139;210;230;275;271;253;91;82;107;87;81;96;104;145;208;245;272;241;263;107;99;100;109;96;98;121;162;194;280;310;271;290;437;92;71;95;91;112;174;189;244;294;333;292;587;496;478;98;90;106;163;239;264;266;309;384;672;610
44.95;470;371;102;119;124;200;243;313;347;367;400;710;649;373;106;115;113;104;155;174;245;287;319;342;345;641;111;114;109;115;111;101;144;196;234;309;307;314;280;103;104;93;106;106;111;126;171;217;252;316;282;266;108;113;116;114;106;98;128;139;207;243;294;263;253;102;93;109;104;118;104;96;162;190;232;274;250;237;87;93;107;108;109;120;114;124;181;247;284;251;233;132;92;109;96;108;101;103;137;204;233;240;262;261;108;99;100;106;91;114;108;150;195;244;290;244;248;116;98;118;104;111;117;129;166;227;253;303;262;283;109;101;103;100;96;111;133;206;216;285;309;291;277;403;116;112;117;126;115;169;268;302;290;338;302;615;425;442;98;104;119;183;248;268;324;347;390;627;585
45.52;441;375;86;80;105;137;208;237;274;320;336;667;590;371;84;78;80;87;109;157;213;237;281;331;320;631;91;90;76;76;75;90;117;163;220;275;269;251;247;87;77;87;86;90;84;86;143;194;244;268;244;241;100;86;77;74;82;96;74;127;167;195;242;256;223;96;85;72;93;88;101;84;107;173;230;222;217;226;94;90;89;79;83;93;75;106;151;213;250;211;210;88;81;92;85;86;87;85;114;167;206;227;217;207;86;85;84;90;76;79;87;152;173;216;231;244;205;93;88;88;73;99;69;95;142;197;236;241;232;218;75;78;104;91;74;80;117;166;228;257;261;243;244;413;84;87;79;81;101;149;210;236;270;328;293;544;508;429;77;83;118;168;222;265;295;315;347;604;554
46.09;443;380;65;82;91;145;186;224;268;308;332;634;574;352;70;73;82;76;92;152;200;235;281;296;279;611;98;85;84;78;86;79;124;157;224;242;252;251;239;80;69;78;83;77;80;85;125;189;232;240;227;233;80;73;83;77;81;83;73;139;173;206;242;201;188;76;74;83;73;79;81;72;114;146;211;225;207;195;86;84;81;80;64;70;76;116;158;196;225;197;189;82;78;71;79;73;74;83;109;157;204;215;205;199;73;73;97;74;83;73;71;133;164;219;211;220;210;72;79;81;79;67;66;94;135;189;219;234;222;205;78;76;82;72;79;79;106;175;201;230;231;230;228;425;78;79;75;83;109;166;189;242;250;281;261;585;458;410;72;81;102;162;212;216;275;305;311;586;547
46.66;438;378;84;78;98;167;182;228;248;331;303;659;579;361;82;69;76;74;105;143;194;238;272;290;264;591;81;75;78;65;73;78;117;185;219;247;240;217;223;59;53;70;71;62;68;93;136;169;201;221;210;207;74;85;78;60;67;77;77;121;166;190;244;201;192;79;65;71;77;72;82;73;116;155;195;181;193;196;76;73;67;68;74;77;68;107;147;216;210;215;185;77;69;74;83;69;80;60;119;166;197;223;200;180;61;73;81;67;70;72;85;132;161;210;248;211;188;78;77;77;75;72;77;77;143;189;223;240;219;195;72;71;83;70;79;77;126;158;206;242;220;228;213;403;81;64;86;64;116;162;204;241;261;283;263;529;440;432;76;92;120;146;195;215;307;320;309;583;537
47.23;442;371;80;90;108;167;201;248;260;286;304;632;583;363;73;62;69;69;106;152;216;218;271;261;255;557;61;65;84;73;71;69;122;146;188;235;239;227;206;72;74;66;71;71;69;93;143;170;205;197;211;205;72;80;72;75;69;69;75;130;157;187;219;197;179;65;81;72;80;77;86;79;112;144;227;204;195;187;80;65;73;69;70;75;67;113;147;207;187;190;180;83;63;75;79;88;87;79;120;169;200;196;180;186;77;60;77;86;73;62;81;134;178;201;218;205;182;79;75;66;83;71;83;95;148;191;224;231;210;221;89;82;82;78;63;79;129;160;203;245;227;230;202;416;78;68;80;76;104;156;185;231;221;263;222;538;451;387;78;76;115;158;201;219;266;283;288;569;572
47.8;425;340;74;74;105;153;184;232;256;304;290;615;554;346;69;69;57;78;114;143;190;231;260;248;241;552;84;67;76;65;79;78;110;150;193;222;219;209;192;61;67;72;69;70;73;87;136;155;212;213;215;214;68;58;81;66;67;78;86;133;167;201;202;186;163;69;84;75;68;80;74;70;117;156;179;209;184;165;79;69;75;72;80;83;67;120;136;192;195;182;172;65;63;66;74;68;69;71;124;167;199;213;186;186;78;73;69;63;68;73;82;146;159;197;200;190;187;81;72;83;76;71;68;88;137;191;205;212;182;186;73;68;80;73;82;84;130;149;195;240;205;227;194;378;75;87;72;76;107;154;196;222;223;255;244;546;451;406;75;75;119;165;202;227;253;290;269;557;531
48.37;406;338;66;87;104;146;188;231;257;266;293;582;557;325;68;57;74;73;117;156;185;245;253;268;252;533;74;62;71;70;70;67;120;175;201;202;220;203;205;64;69;72;67;72;67;101;144;167;198;215;202;190;74;75;80;77;83;77;96;134;162;200;193;203;178;81;66;86;53;68;80;76;125;157;198;195;169;160;77;62;76;79;59;82;59;125;154;180;187;185;176;78;75;68;66;78;76;86;128;156;199;203;191;182;78;74;71;66;82;68;78;121;156;181;187;197;181;69;68;71;69;58;63;93;129;179;218;226;187;173;83;75;79;76;71;87;133;163;180;225;226;214;196;386;66;58;81;73;113;161;170;219;229;250;230;527;395;383;59;83;124;165;184;223;243;288;267;534;503
48.94;405;326;71;78;115;148;191;222;238;261;257;620;562;347;65;72;59;76;116;155;186;232;260;237;229;536;65;61;89;77;65;80;125;159;208;233;210;210;187;73;61;54;71;69;81;90;145;172;223;209;191;185;65;60;68;67;73;82;80;140;156;192;174;197;171;76;74;69;68;74;82;89;117;156;182;221;154;168;74;58;57;76;75;62;75;119;145;201;184;166;159;78;85;64;67;76;57;84;124;166;188;193;169;166;77;76;74;67;71;76;98;143;168;211;183;205;179;80;62;74;64;72;71;103;132;193;212;211;168;180;81;73;63;74;68;80;117;193;191;256;220;198;192;369;72;71;76;84;114;141;185;209;213;248;209;500;407;399;74;90;128;150;195;231;270;285;279;508;498
49.51;412;329;67;69;117;156;197;212;238;278;280;598;552;333;70;72;92;80;114;159;209;223;246;223;243;567;74;75;64;76;59;85;119;156;188;235;215;206;199;61;64;77;69;72;76;105;144;167;211;187;197;167;67;68;73;64;66;77;93;134;178;210;206;167;168;66;84;62;75;63;76;102;141;183;176;182;174;178;84;62;69;62;77;77;75;124;170;183;181;189;153;78;71;67;76;68;65;85;121;174;178;201;179;172;77;69;80;65;69;71;87;144;175;233;200;180;169;68;65;73;63;69;77;109;151;156;204;188;193;172;78;86;80;73;72;92;132;158;201;213;210;212;202;399;78;72;54;79;115;177;203;235;205;243;214;474;405;363;77;89;123;181;192;227;250;284;259;527;471
50.08;394;316;68;90;98;155;181;211;240;288;253;549;501;319;76;59;74;86;119;158;186;218;226;225;226;522;74;69;83;69;61;83;121;169;213;230;172;191;164;71;66;71;60;79;77;101;124;184;191;203;178;165;72;58;76;78;74;76;91;138;177;202;179;172;162;69;71;64;84;67;71;94;133;165;183;195;179;157;82;68;62;63;73;80;113;137;157;168;183;168;154;57;78;77;59;59;71;71;144;164;190;152;161;156;70;74;68;56;84;74;93;123;171;194;194;140;170;69;72;72;81;62;79;111;151;178;188;186;180;165;82;75;76;70;85;100;136;155;198;206;209;195;184;359;81;76;57;99;141;160;179;216;199;219;211;507;435;382;64;86;107;159;198;200;283;251;238;487;479
50.65;377;308;72;96;126;151;185;228;257;259;248;501;487;316;79;67;53;83;124;160;189;230;232;232;204;550;72;70;55;56;77;83;127;180;199;233;203;179;160;68;78;64;68;55;72;102;169;181;187;182;184;162;73;65;72;65;65;67;99;122;178;199;178;168;167;73;76;61;78;69;75;87;127;169;176;174;153;180;79;80;79;67;74;62;102;131;175;189;153;156;137;64;66;66;75;64;63;96;152;158;188;181;170;144;78;78;74;61;76;66;101;136;162;204;194;175;167;78;73;72;74;78;80;129;143;194;183;190;152;170;81;65;74;70;82;92;136;162;190;187;210;203;166;371;76;68;56;80;127;154;195;241;210;205;219;499;396;343;98;85;132;159;174;220;267;257;241;508;471
51.22;384;313;66;89;120;157;191;215;247;259;250;487;474;327;68;65;65;79;109;149;193;228;219;205;203;482;87;61;80;71;66;97;114;171;192;202;194;195;152;64;77;65;59;58;83;97;143;195;197;192;177;164;71;64;63;66;64;61;104;133;177;197;188;183;161;70;64;57;82;87;76;108;119;167;159;163;169;156;76;68;70;60;78;74;82;129;157;179;163;161;157;66;67;64;79;79;78;95;135;174;163;160;179;159;70;77;75;72;71;83;102;142;155;194;161;160;160;65;69;82;69;72;78;125;154;195;189;176;185;162;80;65;62;68;63;111;140;172;176;205;180;184;180;359;79;73;74;108;141;146;189;219;190;216;195;506;360;357;73;109;144;195;179;221;240;249;242;477;480
51.79;349;332;57;89;129;157;189;207;245;239;217;472;500;291;72;67;73;84;116;150;193;225;231;198;208;434;77;70;65;62;78;92;146;163;217;176;199;162;171;63;66;68;72;69;74;117;141;175;168;169;162;155;65;54;64;55;64;83;93;138;184;185;172;166;150;80;71;62;64;72;71;107;129;174;175;158;167;140;74;69;65;65;65;57;107;117;148;159;167;156;156;65;67;73;53;67;69;99;144;169;168;171;158;151;72;79;66;70;71;88;103;171;168;168;155;149;138;75;75;69;66;64;90;122;145;193;171;181;167;163;68;74;61;65;75;112;118;182;182;198;187;188;170;362;62;70;69;103;134;167;184;221;176;214;210;465;379;371;72;102;129;184;194;207;232;247;243;467;481
52.36;359;308;62;84;108;157;184;199;251;242;212;497;465;295;63;61;77;87;118;150;165;207;206;206;187;436;65;71;63;60;60;99;137;185;192;173;186;185;159;72;65;69;53;77;93;116;136;159;171;158;163;144;67;65;76;62;80;80;131;129;155;176;165;156;149;69;72;65;68;59;80;76;143;178;185;146;144;152;68;59;76;72;68;73;110;123;162;176;156;140;148;64;64;61;71;74;67;107;133;158;161;164;151;142;66;61;72;72;56;76;116;136;179;151;165;160;141;81;79;60;64;64;86;111;147;180;197;173;171;159;67;67;77;89;67;102;138;149;174;172;187;201;163;364;63;69;83;86;129;160;173;239;175;191;198;449;352;324;69;92;141;147;198;227;218;217;218;452;469
52.93;392;294;76;99;145;160;183;199;259;234;217;477;498;308;65;57;72;93;123;162;207;211;206;199;191;423;64;61;79;70;76;110;128;168;208;190;183;153;144;69;58;64;61;65;92;119;135;180;170;158;153;167;61;73;69;67;67;72;119;140;168;164;168;161;155;65;64;59;60;64;77;100;145;154;133;156;154;141;68;78;58;70;60;72;108;126;176;161;153;160;153;65;70;58;61;72;72;114;147;170;158;155;146;168;73;61;55;60;75;75;123;156;169;162;152;142;146;67;80;54;67;83;90;111;154;183;182;176;151;151;64;56;57;72;68;117;138;158;186;199;172;194;142;352;75;54;74;109;130;149;194;214;178;193;203;421;360;349;82;101;145;163;198;204;228;247;226;471;456
53.5;362;302;70;107;117;158;209;215;248;215;225;457;478;285;70;66;67;99;122;154;184;214;200;180;189;396;60;63;58;64;81;104;121;150;176;175;169;148;155;76;59;57;56;59;74;125;146;171;162;162;172;164;74;56;65;69;66;81;120;129;180;166;146;148;145;61;63;68;64;55;81;103;117;146;175;142;134;138;67;64;58;68;67;73;114;126;166;135;149;154;135;56;54;67;65;63;76;114;142;159;165;170;123;142;67;54;64;72;62;92;101;166;164;163;161;163;140;66;62;62;65;66;107;133;147;151;175;168;157;142;62;72;72;73;73;111;131;170;171;171;166;163;153;339;75;73;71;106;149;171;194;203;172;195;174;446;374;340;81;105;128;170;178;203;239;222;227;473;444
54.07;346;285;74;95;133;152;183;207;221;209;208;460;444;281;61;48;59;107;130;166;180;184;192;183;189;388;65;63;58;65;82;99;133;169;181;167;164;151;138;64;58;65;64;55;93;109;140;169;154;145;154;167;50;68;64;59;70;84;117;152;151;153;149;131;135;68;60;59;66;65;80;118;150;147;167;132;136;124;61;53;72;54;69;76;96;140;143;150;131;138;148;71;51;66;62;62;76;118;133;161;153;145;145;133;68;63;65;55;67;86;116;152;179;162;144;140;132;74;60;68;70;72;82;115;168;166;155;166;162;139;62;64;59;69;88;109;136;175;172;169;154;152;151;338;65;77;73;87;143;177;172;210;154;176;165;425;369;324;75;105;154;188;214;222;224;195;185;422;426
54.64;354;275;83;94;124;172;166;208;194;215;192;468;422;266;61;59;88;106;126;157;183;186;165;180;153;402;64;59;66;66;67;103;129;150;170;180;146;151;156;66;64;59;51;60;96;127;168;173;139;141;155;152;67;58;64;59;60;88;125;159;159;148;132;127;159;50;56;68;71;67;83;113;131;159;152;144;155;132;68;65;63;55;61;90;105;136;148;139;167;138;144;70;65;66;52;68;82;111;137;149;142;151;140;125;53;62;59;61;55;76;100;146;131;151;136;123;140;54;57;63;62;71;100;129;148;191;166;146;150;137;56;55;49;77;74;98;151;167;175;158;166;147;162;317;69;65;85;104;135;146;181;196;159;161;164;405;357;322;83;113;143;176;181;207;234;202;196;427;403
55.21;340;278;81;109;135;179;196;221;209;219;217;462;431;297;66;69;77;101;141;178;199;223;197;202;182;376;75;67;67;90;91;125;152;151;177;188;157;157;168;62;72;73;77;78;110;138;166;166;153;164;177;162;86;85;70;76;92;79;135;160;168;178;160;143;145;72;69;60;79;77;104;137;157;165;161;163;139;148;75;81;68;72;92;90;128;141;177;171;161;153;151;79;82;68;64;68;105;120;149;163;165;160;149;144;70;69;78;63;76;108;119;158;163;174;159;157;147;75;82;61;81;77;103;140;161;185;164;165;149;163;80;61;82;66;87;112;153;161;185;166;181;172;152;347;61;73;91;123;138;171;202;184;168;183;184;425;373;324;102;128;146;192;200;222;229;219;217;457;437
55.78;348;297;99;138;148;188;212;233;226;228;231;445;436;289;93;87;110;150;160;192;234;226;226;220;205;362;85;89;85;94;116;143;164;197;222;187;179;149;175;86;78;92;85;105;133;144;170;181;193;179;167;158;82;79;86;85;108;130;147;179;185;199;161;156;155;83;86;87;100;90;119;152;163;172;193;142;152;149;86;81;85;95;93;123;148;174;152;172;147;141;147;95;73;75;90;105;106;134;170;171;161;174;148;141;92;84;86;89;86;118;138;172;192;179;149;143;163;85;84;81;97;108;121;144;185;193;162;160;173;149;82;92;90;85;121;148;151;202;192;189;169;167;139;309;87;78;101;145;155;177;209;213;161;183;170;407;334;324;113;135;164;206;212;229;250;213;215;418;428
56.35;360;278;75;106;159;174;220;184;212;181;191;442;427;253;87;70;92;131;164;174;187;180;175;152;175;362;69;75;81;72;84;130;145;177;169;141;155;146;146;82;53;64;73;72;107;139;149;165;153;137;148;140;65;58;61;64;82;104;138;146;151;140;132;132;118;69;68;86;72;71;103;136;130;157;150;144;134;119;62;70;65;76;58;80;124;152;134;120;125;151;132;76;66;73;73;71;90;114;145;133;135;133;130;125;67;77;68;69;79;92;112;149;155;180;140;137;130;69;76;70;63;62;113;138;143;170;142;133;144;136;73;73;76;68;101;121;158;177;173;172;146;143;140;342;70;73;92;115;133;155;184;193;160;174;177;386;335;307;96;127;149;168;201;203;214;201;182;416;426
56.92;342;281;99;96;143;158;171;190;218;197;190;439;425;260;63;56;90;105;133;166;186;181;168;172;169;356;65;59;47;68;102;96;133;158;152;139;137;127;136;55;56;59;64;76;107;122;138;142;143;147;113;141;60;69;71;61;74;107;134;150;125;155;155;119;116;57;56;55;71;63;86;119;165;145;146;135;116;107;57;59;68;68;68;98;117;136;134;145;127;119;126;67;63;67;67;70;81;123;132;144;133;120;132;125;57;56;51;53;77;89;108;157;160;119;146;112;111;63;74;56;62;74;117;130;151;163;143;138;154;128;61;65;58;69;105;129;146;152;192;175;153;147;130;326;53;61;86;118;139;152;172;157;158;156;153;384;342;310;86;122;148;164;181;200;200;179;183;461;402
57.49;317;305;85;122;143;135;171;170;188;171;174;418;408;262;66;65;88;119;130;155;164;158;157;153;153;340;49;50;57;62;96;109;134;158;151;159;132;141;127;59;50;45;50;70;113;129;145;156;150;131;132;115;48;55;63;57;74;100;150;141;138;124;124;125;117;53;57;59;59;55;93;111;139;138;144;125;113;108;54;59;49;50;70;88;113;128;126;117;134;107;106;67;60;57;55;68;103;110;132;129;127;142;122;117;62;72;58;57;69;107;123;132;146;137;138;130;117;50;51;45;63;95;109;132;132;140;148;134;119;131;62;61;58;74;95;113;143;154;154;152;155;141;132;315;55;73;91;115;127;152;158;183;129;173;165;359;324;310;87;120;133;151;193;183;191;182;180;411;390
58.06;318;254;77;98;135;149;168;184;177;193;169;374;398;257;59;66;76;97;128;146;167;174;164;149;140;331;51;55;69;65;102;117;133;162;154;148;135;144;124;53;53;58;60;72;102;155;139;122;141;122;115;119;48;59;56;65;79;107;125;125;141;131;124;114;126;60;51;65;63;68;87;127;134;140;117;119;126;114;48;56;48;54;71;89;113;146;122;113;130;117;106;54;53;54;58;81;90;112;133;115;133;123;125;105;65;56;60;65;69;105;129;145;132;127;122;125;110;62;54;56;58;92;104;144;148;126;148;122;118;125;56;53;56;66;101;117;158;160;153;141;131;131;124;300;60;65;89;134;129;166;145;144;130;151;140;424;328;306;88;129;144;164;179;184;188;170;179;399;417
58.63;341;281;92;115;130;166;171;177;174;159;156;425;423;233;40;48;97;109;142;154;191;169;163;157;135;332;65;43;53;80;107;110;131;158;133;131;142;139;130;52;57;53;58;81;114;124;127;131;133;133;115;110;51;52;48;61;71;90;98;137;145;131;119;93;104;47;56;50;50;73;99;118;132;124;128;113;138;92;57;57;55;48;76;90;138;129;116;128;115;120;106;64;48;61;65;59;94;125;126;144;122;116;115;121;60;57;47;60;73;103;131;156;143;124;106;117;107;55;67;48;59;95;104;118;162;132;136;114;122;104;53;43;67;62;104;133;134;167;130;132;144;135;117;285;65;73;87;141;136;163;160;153;133;150;138;340;280;307;93;126;151;168;181;201;163;161;168;375;380
59.2;318;254;99;110;139;156;177;179;164;165;150;415;383;237;54;74;79;115;135;166;171;173;156;145;125;337;51;45;66;91;93;122;119;153;135;129;121;122;121;62;41;47;56;83;121;128;137;130;125;126;114;116;45;52;63;47;84;97;126;127;137;132;113;120;118;52;57;58;55;72;110;122;142;126;111;107;123;101;56;46;46;61;58;91;124;117;116;121;123;109;106;55;53;49;57;75;98;102;140;114;114;101;108;114;47;56;51;56;90;109;123;129;128;126;110;109;115;44;59;60;66;92;98;117;143;121;129;118;105;120;51;50;67;61;94;124;149;153;130;141;145;121;108;310;49;75;95;122;132;155;142;153;141;139;134;355;327;320;92;132;151;159;171;188;188;147;179;407;421
59.77;306;249;93;121;146;136;161;187;167;174;148;406;343;241;57;76;90;107;145;151;171;150;150;137;135;349;49;48;55;70;101;126;130;133;130;129;144;119;110;58;44;54;71;87;104;120;134;120;120;109;120;110;50;51;62;60;74;111;128;112;128;126;115;121;105;55;57;45;71;72;95;132;115;116;116;116;106;101;62;44;50;65;77;105;123;121;109;111;125;105;111;44;48;52;61;95;87;127;127;135;102;109;111;94;48;50;50;60;87;105;125;139;139;122;114;93;103;50;50;54;65;90;97;129;141;127;120;113;115;117;51;54;62;76;119;122;134;130;138;125;126;124;114;304;58;58;95;118;146;170;153;158;137;124;145;346;345;303;101;127;162;167;182;180;169;153;160;417;388
60.34;316;284;103;116;143;158;162;168;159;155;166;391;356;220;55;80;109;112;132;158;132;145;144;125;132;311;49;52;47;63;99;125;135;160;143;130;121;102;101;50;46;50;76;98;109;143;144;141;131;105;106;115;46;54;53;64;97;110;124;120;133;116;91;131;109;56;41;53;69;97;110;131;124;135;112;110;102;92;53;52;58;63;79;81;118;130;123;112;120;110;106;58;57;53;60;86;102;122;109;111;112;93;84;104;40;50;56;68;75;107;116;117;133;133;100;101;108;51;52;57;79;88;103;129;131;127;111;120;115;95;57;45;69;82;114;114;145;132;139;133;135;104;131;312;57;58;103;128;148;141;154;131;105;135;130;356;336;321;99;123;148;164;165;173;167;165;174;400;362
60.91;313;300;93;119;138;135;156;162;142;152;134;380;375;242;63;87;97;129;123;139;138;168;140;128;139;295;62;48;63;79;104;125;140;149;112;121;135;118;100;52;41;55;70;92;104;123;132;109;108;119;118;119;58;46;50;57;97;113;108;143;124;117;118;108;97;55;56;47;68;81;103;132;138;121;103;110;101;98;54;50;55;63;61;107;111;108;127;95;105;99;101;52;67;67;65;75;106;125;133;122;108;120;92;105;57;53;62;58;80;103;121;123;114;114;108;112;108;59;53;59;77;98;122;121;134;127;114;102;123;102;48;59;68;83;98;118;145;141;121;116;130;106;111;282;63;79;109;137;153;152;145;144;101;141;122;360;315;309;91;130;149;164;181;158;171;173;157;400;371
61.48;313;281;101;122;132;157;154;159;178;159;156;357;361;233;57;81;94;108;145;171;141;150;134;118;117;307;50;46;64;84;100;106;138;135;112;118;120;110;123;44;48;50;66;98;106;121;106;129;106;105;100;100;59;50;46;68;84;100;104;125;105;123;101;114;118;69;49;46;64;84;108;118;133;109;113;102;99;87;47;50;55;57;76;94;121;119;112;109;97;102;93;48;54;55;69;72;114;107;110;109;116;98;103;94;50;45;51;78;81;99;111;122;111;120;112;101;105;62;55;60;66;102;112;115;139;115;113;106;104;104;75;52;67;95;102;136;146;140;139;129;124;107;106;302;63;78;110;121;136;148;140;124;111;124;118;348;310;314;116;131;162;173;145;167;156;154;156;395;384
62.05;310;275;93;136;140;145;149;152;159;145;122;375;367;241;59;91;103;126;134;135;130;143;133;131;115;311;56;51;60;79;101;128;123;129;115;110;125;103;105;56;46;53;57;94;114;133;124;123;94;112;103;93;50;35;64;69;89;103;117;122;115;116;104;102;109;58;41;56;62;96;118;119;115;115;108;100;105;98;49;49;53;67;85;98;114;121;104;110;105;101;88;58;55;55;77;90;103;123;118;112;109;93;114;100;48;55;48;70;96;114;116;123;117;115;120;103;100;56;54;52;85;89;98;136;115;135;110;113;109;99;54;57;65;87;97;123;125;135;120;117;116;117;105;291;75;86;105;123;134;143;131;129;101;129;105;339;321;325;95;133;163;181;146;155;155;153;149;401;365
62.62;290;280;86;130;151;147;170;168;149;145;136;345;367;240;56;84;119;122;139;147;138;134;141;116;123;294;48;62;57;103;98;122;125;120;125;122;99;116;109;49;51;71;76;108;109;122;119;102;99;90;107;109;50;49;53;70;87;111;115;115;111;95;114;112;93;56;54;45;68;86;102;92;122;105;104;96;92;99;44;42;45;64;79;111;122;115;109;100;85;103;92;46;59;62;67;91;116;113;112;105;92;96;88;81;48;46;54;86;91;115;96;109;108;102;88;97;101;57;65;54;86;110;116;121;108;108;111;111;106;117;47;64;69;94;122;129;130;137;114;117;104;120;103;264;71;77;116;134;128;149;135;154;110;135;111;346;320;315;97;131;144;172;150;141;160;161;141;361;344
63.19;326;283;106;129;148;143;143;130;142;121;137;365;356;219;58;86;107;126;149;146;127;134;114;136;123;305;56;57;72;86;105;123;123;109;104;102;106;107;110;48;53;65;89;118;114;118;121;99;107;107;108;91;42;48;71;72;89;106;115;106;110;107;110;88;92;47;44;52;82;92;110;106;114;99;95;115;93;91;42;49;55;69;77;112;109;93;101;99;90;102;95;45;56;56;73;93;102;124;110;99;104;95;110;93;57;44;72;83;93;105;116;89;113;100;96;95;92;52;46;63;88;101;114;126;114;110;113;104;105;115;47;59;70;94;132;122;137;140;108;117;112;106;122;282;73;90;115;128;134;146;143;151;118;117;112;360;285;304;106;139;149;157;147;158;145;157;160;388;328
63.76;290;269;109;111;157;156;163;161;149;128;115;347;360;210;64;97;110;150;131;130;138;123;133;112;101;302;54;52;81;83;122;116;128;114;113;102;100;107;101;55;62;67;84;109;111;132;114;105;102;99;89;106;44;56;62;85;105;117;114;110;123;109;106;85;93;50;53;65;70;86;99;95;112;101;102;95;76;103;37;46;54;92;92;106;107;109;98;94;90;100;91;49;49;49;71;88;104;92;108;110;107;105;93;95;52;58;55;77;108;121;103;106;121;106;86;96;90;51;64;59;98;99;117;106;118;125;128;104;100;101;65;55;75;89;108;116;119;123;112;90;100;118;104;274;77;94;115;119;146;144;138;114;105;117;120;334;294;340;105;127;155;174;147;152;156;141;143;375;357
64.33;300;274;112;116;132;140;153;144;127;135;111;344;363;207;69;91;109;133;164;143;126;121;126;106;110;279;47;47;70;109;126;136;132;117;107;101;112;100;99;45;44;63;85;101;103;114;101;100;95;107;93;100;43;48;66;77;101;107;120;115;105;108;103;87;99;50;50;57;76;90;116;117;114;99;87;114;86;91;52;55;55;76;92;100;113;105;114;104;106;99;99;55;51;56;95;106;124;113;86;101;104;68;88;103;48;59;68;80;100;116;90;118;115;97;98;94;87;51;50;76;93;109;119;113;108;102;117;93;103;100;61;57;82;99;117;121;134;122;114;119;95;106;101;267;69;102;112;139;138;144;120;136;107;111;108;325;317;322;112;138;148;145;145;139;149;144;158;359;339
64.9;309;276;110;113;153;151;121;142;139;122;136;353;335;239;69;95;112;126;133;128;117;108;112;112;92;312;58;60;81;84;118;115;121;105;104;111;100;88;91;55;60;74;94;95;126;127;105;113;92;104;97;94;55;48;64;101;100;119;110;108;97;95;108;98;82;54;63;74;85;94;113;104;105;110;107;106;93;96;49;64;63;76;112;106;111;111;93;92;93;101;102;60;66;64;84;96;121;113;96;102;99;91;96;98;59;58;66;93;87;125;108;124;98;112;90;101;107;57;67;75;106;117;105;96;111;95;123;103;94;95;65;82;93;105;105;131;133;114;109;103;110;90;105;279;87;108;106;137;142;116;126;129;133;112;120;339;300;311;128;152;135;159;139;157;142;160;145;353;325
65.47;317;303;104;128;136;141;150;138;130;132;114;352;331;236;84;113;109;139;140;127;124;127;123;112;104;286;48;75;90;101;106;120;107;129;122;98;111;99;107;56;59;77;92;93;112;122;90;98;107;89;89;97;47;61;69;108;114;125;112;103;118;103;104;86;110;48;56;64;95;100;111;114;102;99;109;79;89;96;45;64;61;82;99;109;122;102;87;86;99;92;80;53;49;79;81;114;114;117;99;103;83;111;87;85;41;59;74;94;113;102;119;112;103;93;99;94;107;48;72;83;88;109;117;102;96;98;106;93;94;104;56;73;89;109;105;115;119;127;112;114;110;102;110;287;81;99;113;127;138;145;136;129;97;125;127;303;296;327;117;134;156;156;146;139;144;142;165;334;346
66.04;305;285;101;147;151;144;140;131;112;134;107;346;313;226;83;105;140;135;136;125;109;116;126;107;101;273;62;60;87;99;118;111;109;130;101;102;87;100;119;63;59;78;90;109;109;118;98;105;87;89;97;105;57;67;66;108;93;111;101;104;106;103;89;91;92;54;57;60;92;109;96;112;115;96;95;80;86;111;46;55;77;95;95;98;105;97;112;95;84;91;101;52;64;69;95;108;108;103;106;94;90;81;106;93;49;61;74;100;103;130;96;92;102;85;95;85;94;67;67;96;90;120;114;110;107;89;95;93;84;112;61;77;95;110;112;126;117;103;91;105;101;85;103;302;84;118;113;139;132;122;118;115;95;100;114;320;318;320;119;144;147;153;150;141;133;123;155;344;329
66.61;300;275;132;130;136;129;121;135;135;123;122;341;325;225;75;95;109;128;130;121;125;112;110;123;107;269;66;58;98;128;120;127;115;107;103;110;85;92;91;60;67;82;101;90;111;115;124;96;84;96;92;99;49;60;82;94;107;101;107;107;95;95;97;85;109;58;57;81;87;101;103;110;95;95;85;104;89;88;51;60;82;84;90;107;91;111;85;86;86;86;95;55;65;75;96;96;102;89;93;94;79;103;105;96;58;78;91;95;106;111;107;106;96;89;98;88;111;58;77;101;104;110;124;109;112;98;97;86;93;119;68;86;87;113;130;113;114;116;116;103;104;96;113;259;85;102;121;141;122;131;136;117;116;112;89;303;287;339;123;126;149;135;157;136;150;148;156;340;329
67.18;301;254;112;132;145;140;131;113;98;119;113;323;325;222;93;111;126;123;122;122;128;115;107;105;126;283;66;74;89;105;114;110;117;98;95;100;100;100;122;70;64;82;116;99;109;108;96;94;101;100;91;115;65;65;81;102;106;114;119;101;86;109;106;96;112;54;67;71;113;101;103;108;93;89;91;89;91;95;51;70;74;95;113;105;115;82;94;93;93;91;106;59;68;82;98;105;92;99;102;101;90;83;93;90;64;65;82;101;106;119;108;95;85;79;104;81;96;67;75;106;120;103;97;118;101;94;99;95;95;112;66;73;91;107;123;109;115;93;114;103;89;98;116;275;98;108;127;139;124;134;108;120;127;116;100;304;312;307;130;140;143;157;140;144;132;156;139;338;330
67.75;300;258;132;135;129;120;120;144;120;125;128;315;343;236;108;110;137;132;127;139;119;114;117;112;107;288;83;78;101;117;122;116;112;118;113;102;97;111;107;59;77;86;110;92;113;122;110;98;98;109;90;103;55;68;87;105;98;98;106;98;90;109;97;110;111;61;72;83;106;114;121;98;99;113;94;87;87;109;55;67;88;100;119;93;98;98;90;98;83;98;91;57;73;71;99;109;97;103;96;100;87;99;99;104;52;67;88;103;102;106;102;98;92;88;97;91;93;57;67;105;116;110;107;122;122;110;89;99;100;103;76;91;104;134;117;113;120;111;99;101;90;92;107;287;101;113;131;120;154;122;116;120;106;95;109;333;313;307;133;159;170;156;134;131;148;130;133;330;321
68.32;308;289;128;128;145;158;135;124;122;110;112;309;309;241;114;111;138;136;130;121;117;124;112;105;117;289;81;103;105;123;123;125;111;110;89;113;91;108;113;73;99;100;113;117;100;110;97;113;84;99;96;112;64;85;87;102;104;109;103;92;119;105;100;94;134;65;85;85;107;101;114;115;118;108;90;102;93;104;61;75;89;95;103;116;99;103;101;101;92;100;110;60;60;116;109;96;106;91;90;91;93;96;91;111;66;77;87;109;125;107;93;98;95;98;90;105;110;82;82;97;121;113;110;120;105;99;92;90;119;117;70;96;106;109;133;115;112;108;111;101;113;115;110;246;106;120;128;156;133;130;120;107;117;92;112;319;307;286;127;160;142;142;138;145;140;163;151;344;359
68.875;310;281;126;143;137;141;137;131;136;133;122;333;302;260;125;145;140;138;143;126;121;112;114;121;119;286;86;105;119;130;125;112;118;130;110;105;110;111;127;70;89;96;105;118;100;114;113;98;95;115;113;116;85;88;98;95;113;120;115;104;108;90;99;99;125;66;82;80;109;99;114;124;94;100;116;93;122;122;76;99;84;111;127;103;98;93;109;99;105;113;114;93;71;96;98;119;119;104;107;94;109;108;107;120;70;88;103;113;108;101;105;105;106;89;104;103;132;87;100;103;108;120;102;117;100;103;92;107;101;118;89;108;105;119;129;127;135;121;111;109;116;138;115;281;121;132;147;144;127;131;141;117;104;100;118;279;297;311;134;158;164;146;139;145;131;143;139;324;319